x,y,orientation,condition,.thisRepN,.thisTrialN,.thisN,.thisIndex,.stepSize,.intensity,image_name,global_start_time,global_end_time,pressKey,pressRT,releaseRT,image_started,image_ended,name,globalTime,fixation_dur,cue_dur,stimulation_dur,post_fixation,opacity,orientationResponse_pressKey,orientationResponse_pressRT,orientationResponse_releaseRT,.response,locationResponse_pressKey,locationResponse_pressRT,locationResponse_releaseRT,pasResponse_pressKey,pasResponse_pressRT,pasResponse_releaseRT,finalOpacity,postLoc,postOri,ID,frameRate,
,,,,0,-1,-1,0,0.0969100130080564,None,materials/instructions\1_welcome.png,5.68885360006243,72.98182600014843,0,67.12455379986204,67.29016319988295,0.09013639995828271,67.31101790000685,,,,,,,,,,,,,,,,,,,,,1905_1145,60.0,
,,,,0,-1,-1,0,0.0969100130080564,None,materials/instructions\2_instruction.png,73.04774760012515,98.1644598999992,0,24.882564299972728,25.114342899993062,0.01869769999757409,25.119479299988598,,,,,,,,,,,,,,,,,,,,,1905_1145,60.0,
,,,,0,-1,-1,0,0.0969100130080564,None,materials/instructions\3_location_demo.png,98.20576310018077,109.72106440016069,0,11.17798490007408,11.5135345000308,0.014063799986615777,11.520472799893469,,,,,,,,,,,,,,,,,,,,,1905_1145,60.0,
,,,,0,-1,-1,0,0.0969100130080564,None,materials/instructions\4_orientation_demo.png,109.77546400018036,124.30278940009885,0,14.274725700030103,14.525572000071406,0.017255499958992004,14.553430099971592,,,,,,,,,,,,,,,,,,,,,1905_1145,60.0,
,,,,0,-1,-1,0,0.0969100130080564,None,materials/instructions\5_pas_demo.png,124.37199200014584,141.99957940005697,0,17.35969699989073,17.626041299896315,0.012299400055781007,17.63056750013493,,,,,,,,,,,,,,,,,,,,,1905_1145,60.0,
,,,,0,-1,-1,0,0.0969100130080564,None,materials/instructions\10_staircase_start.png,142.05861639999785,154.65025880001485,0,12.372499200049788,12.590519899968058,0.025827700039371848,12.614183299941942,,,,,,,,,,,,,,,,,,,,,1905_1145,60.0,
,,,,0,0,-1,0,0.0969100130080564,0.1,,,,,,,,,staircase,154.6816182001494,120.0,6.0,2.0,72.0,0.1,0,1.9228186998516321,2.2008142999839038,0,,,,,,,,,,1905_1145,60.0,
,,,,0,1,-1,0,0.0969100130080564,0.125,,,,,,,,,staircase,162.9954880999867,144.0,6.0,2.0,72.0,0.125,0,15.390226099872962,15.653640999924392,0,,,,,,,,,,1905_1145,60.0,
,,,,0,2,-1,0,0.0969100130080564,0.15625,,,,,,,,,staircase,184.08347410010174,144.0,6.0,2.0,72.0,0.15625,6,1.9407073000911623,2.1235285000875592,1,,,,,,,,,,1905_1145,60.0,
,,,,0,3,-1,0,0.0969100130080564,0.125,,,,,,,,,staircase,190.91916140005924,132.0,6.0,2.0,72.0,0.125,7,5.544408800080419,5.6922079001087695,0,,,,,,,,,,1905_1145,60.0,
,,,,0,4,-1,0,0.0969100130080564,0.15625,,,,,,,,,staircase,202.43875840003602,96.0,6.0,2.0,72.0,0.15625,6,3.036476500099525,3.186335999984294,1,,,,,,,,,,1905_1145,60.0,
,,,,0,5,-1,0,0.0969100130080564,0.15625,,,,,,,,,staircase,211.43758450006135,126.0,6.0,2.0,72.0,0.15625,7,2.02209630003199,2.182067400077358,1,,,,,,,,,,1905_1145,60.0,
,,,,0,6,-1,0,0.0969100130080564,0.125,,,,,,,,,staircase,218.7362675999757,120.0,6.0,2.0,72.0,0.125,6,1.6762694001663476,1.8336110000964254,1,,,,,,,,,,1905_1145,60.0,
,,,,0,7,-1,0,0.0969100130080564,0.125,,,,,,,,,staircase,224.38454310013913,96.0,6.0,2.0,72.0,0.125,0,2.0539855000097305,2.2197572998702526,1,,,,,,,,,,1905_1145,60.0,
,,,,0,8,-1,0,0.0969100130080564,0.1,,,,,,,,,staircase,230.65108090010472,114.0,6.0,2.0,72.0,0.1,0,1.259200599975884,1.4107641000300646,1,,,,,,,,,,1905_1145,60.0,
,,,,0,9,-1,0,0.0969100130080564,0.1,,,,,,,,,staircase,235.77098700008355,102.0,6.0,2.0,72.0,0.1,0,1.2966016000136733,1.480075699975714,1,,,,,,,,,,1905_1145,60.0,
,,,,0,10,-1,0,0.0969100130080564,0.08,,,,,,,,,staircase,240.77414340013638,102.0,6.0,2.0,72.0,0.08,1,1.2976136999204755,1.4638372999615967,1,,,,,,,,,,1905_1145,60.0,
,,,,0,11,-1,0,0.0969100130080564,0.08,,,,,,,,,staircase,245.74495910014957,114.0,6.0,2.0,72.0,0.08,6,2.2713682998437434,2.471394599881023,1,,,,,,,,,,1905_1145,60.0,
,,,,0,12,-1,0,0.0969100130080564,0.064,,,,,,,,,staircase,252.56789030018263,102.0,6.0,2.0,72.0,0.064,6,2.4190352999139577,2.71918289992027,1,,,,,,,,,,1905_1145,60.0,
,,,,0,13,-1,0,0.0969100130080564,0.064,,,,,,,,,staircase,258.8060202000197,102.0,6.0,2.0,72.0,0.064,1,1.1644641000311822,1.363783000037074,1,,,,,,,,,,1905_1145,60.0,
,,,,0,14,-1,0,0.0969100130080564,0.0512,,,,,,,,,staircase,263.6751208000351,150.0,6.0,2.0,72.0,0.0512,1,3.6047133000101894,3.7849257001653314,0,,,,,,,,,,1905_1145,60.0,
,,,,0,15,-1,0,0.0969100130080564,0.064,,,,,,,,,staircase,271.7668662001379,96.0,6.0,2.0,72.0,0.064,0,1.3130647998768836,1.4952650000341237,1,,,,,,,,,,1905_1145,60.0,
,,,,0,16,-1,0,0.0969100130080564,0.064,,,,,,,,,staircase,276.6704727001488,120.0,6.0,2.0,72.0,0.064,7,2.1469580999109894,2.3303477000445127,0,,,,,,,,,,1905_1145,60.0,
,,,,0,17,-1,0,0.0969100130080564,0.08,,,,,,,,,staircase,282.8061954001896,150.0,6.0,2.0,72.0,0.08,0,1.209033700171858,1.4235849999822676,1,,,,,,,,,,1905_1145,60.0,
,,,,0,18,-1,0,0.0969100130080564,0.08,,,,,,,,,staircase,288.5433704999741,96.0,6.0,2.0,72.0,0.08,7,1.3060602999757975,1.4559349999763072,1,,,,,,,,,,1905_1145,60.0,
,,,,0,19,-1,0,0.0969100130080564,0.064,,,,,,,,,staircase,293.80445280019194,120.0,6.0,2.0,72.0,0.064,6,1.2287632001098245,1.4115947000682354,1,,,,,,,,,,1905_1145,60.0,
,,,,0,20,-1,0,0.0969100130080564,0.064,,,,,,,,,staircase,299.03709170012735,144.0,6.0,2.0,72.0,0.064,6,0.8287641999777406,1.0128641999326646,1,,,,,,,,,,1905_1145,60.0,
,,,,0,21,-1,0,0.0969100130080564,0.0512,,,,,,,,,staircase,304.2558726000134,132.0,6.0,2.0,72.0,0.0512,1,1.114833900006488,1.3322580999229103,1,,,,,,,,,,1905_1145,60.0,
,,,,0,22,-1,0,0.0969100130080564,0.0512,,,,,,,,,staircase,309.59355530003086,108.0,6.0,2.0,72.0,0.0512,0,0.8865618000272661,1.0895851000677794,1,,,,,,,,,,1905_1145,60.0,
,,,,0,23,-1,0,0.0969100130080564,0.04096,,,,,,,,,staircase,314.73452990013175,132.0,6.0,2.0,72.0,0.04096,6,1.2416201999876648,1.4495739000849426,1,,,,,,,,,,1905_1145,60.0,
,,,,0,24,-1,0,0.0969100130080564,0.04096,,,,,,,,,staircase,320.5744599001482,96.0,6.0,2.0,72.0,0.04096,7,1.4352714999113232,1.66073549981229,0,,,,,,,,,,1905_1145,60.0,
,,,,0,25,-1,0,0.0969100130080564,0.0512,,,,,,,,,staircase,325.6551632999908,132.0,6.0,2.0,72.0,0.0512,6,1.1144112998154014,1.333365899976343,1,,,,,,,,,,1905_1145,60.0,
,,,,0,26,-1,0,0.0969100130080564,0.0512,,,,,,,,,staircase,330.99427630007267,96.0,6.0,2.0,72.0,0.0512,1,1.827554800081998,2.01992250001058,1,,,,,,,,,,1905_1145,60.0,
,,,,0,27,-1,0,0.0969100130080564,0.04096,,,,,,,,,staircase,336.482193400152,150.0,6.0,2.0,72.0,0.04096,0,1.0103349999990314,1.2286776001565158,1,,,,,,,,,,1905_1145,60.0,
,,,,0,28,-1,0,0.0969100130080564,0.04096,,,,,,,,,staircase,342.13755089999177,114.0,6.0,2.0,72.0,0.04096,7,0.893825699808076,1.1113507999107242,1,,,,,,,,,,1905_1145,60.0,
,,,,0,29,-1,0,0.0969100130080564,0.032768000000000005,,,,,,,,,staircase,346.95518800010905,114.0,6.0,2.0,72.0,0.032768000000000005,0,0.6615452000405639,0.8617114000953734,1,,,,,,,,,,1905_1145,60.0,
,,,,0,30,-1,0,0.0969100130080564,0.032768000000000005,,,,,,,,,staircase,351.5249652999919,96.0,6.0,2.0,72.0,0.032768000000000005,6,2.4030316998250782,2.59354649996385,0,,,,,,,,,,1905_1145,60.0,
,,,,0,31,-1,0,0.0969100130080564,0.04096000000000001,,,,,,,,,staircase,357.51057350006886,132.0,6.0,2.0,72.0,0.04096000000000001,7,1.6708116999361664,1.8554754999931902,1,,,,,,,,,,1905_1145,60.0,
,,,,0,32,-1,0,0.0969100130080564,0.04096000000000001,,,,,,,,,staircase,364.9698688001372,138.0,6.0,2.0,72.0,0.04096000000000001,1,0.8276170000899583,1.0442769001238048,1,,,,,,,,,,1905_1145,60.0,
,,,,0,33,-1,0,0.0969100130080564,0.032768000000000005,,,,,,,,,staircase,371.7412949001882,144.0,6.0,2.0,72.0,0.032768000000000005,1,0.8035375000908971,1.053380300058052,1,,,,,,,,,,1905_1145,60.0,
,,,,0,34,-1,0,0.0969100130080564,0.032768000000000005,,,,,,,,,staircase,377.0121615000535,102.0,6.0,2.0,72.0,0.032768000000000005,6,0.43398119998164475,0.654371399898082,1,,,,,,,,,,1905_1145,60.0,
,,,,0,35,-1,0,0.0969100130080564,0.026214400000000006,,,,,,,,,staircase,381.7047129001003,150.0,6.0,2.0,72.0,0.026214400000000006,7,1.2643309000413865,1.5138725999277085,1,,,,,,,,,,1905_1145,60.0,
,,,,0,36,-1,0,0.0969100130080564,0.026214400000000006,,,,,,,,,staircase,387.5697672001552,144.0,6.0,2.0,72.0,0.026214400000000006,0,1.2973146999720484,1.4968717999290675,1,,,,,,,,,,1905_1145,60.0,
,,,,0,37,-1,0,0.0969100130080564,0.020971520000000004,,,,,,,,,staircase,393.27378930011764,114.0,6.0,2.0,72.0,0.020971520000000004,6,0.9656956000253558,1.1297343999613076,0,,,,,,,,,,1905_1145,60.0,
,,,,0,38,-1,0,0.0969100130080564,0.026214400000000006,,,,,,,,,staircase,398.11006680014543,138.0,6.0,2.0,72.0,0.026214400000000006,6,0.7941405000165105,0.973550499882549,1,,,,,,,,,,1905_1145,60.0,
,,,,0,39,-1,0,0.0969100130080564,0.026214400000000006,,,,,,,,,staircase,403.63395490008406,126.0,6.0,2.0,72.0,0.026214400000000006,1,0.9545404999516904,1.1546404999680817,1,,,,,,,,,,1905_1145,60.0,
,,,,0,40,-1,0,0.0969100130080564,0.020971520000000004,,,,,,,,,staircase,408.72163990000263,126.0,6.0,2.0,72.0,0.020971520000000004,0,2.1986412999685854,2.480249800020829,1,,,,,,,,,,1905_1145,60.0,
,,,,0,41,-1,0,0.0969100130080564,0.020971520000000004,,,,,,,,,staircase,415.091549300123,108.0,6.0,2.0,72.0,0.020971520000000004,7,0.5619361998979002,0.7789991998579353,1,,,,,,,,,,1905_1145,60.0,
,,,,0,42,-1,0,0.0969100130080564,0.016777216000000005,,,,,,,,,staircase,419.47801039996557,102.0,6.0,2.0,72.0,0.016777216000000005,6,1.8861072000581771,2.0737985998857766,0,,,,,,,,,,1905_1145,60.0,
,,,,0,43,-1,0,0.0969100130080564,0.020971520000000007,,,,,,,,,staircase,425.204605899984,108.0,6.0,2.0,72.0,0.020971520000000007,7,0.7500133998692036,0.9498487999662757,1,,,,,,,,,,1905_1145,60.0,
,,,,0,44,-1,0,0.0969100130080564,0.020971520000000007,,,,,,,,,staircase,429.80687640002,150.0,6.0,2.0,72.0,0.020971520000000007,1,1.0164364997763187,1.1832631998695433,1,,,,,,,,,,1905_1145,60.0,
,,,,0,45,-1,0,0.0969100130080564,0.016777216000000005,,,,,,,,,staircase,435.3224665001035,96.0,6.0,2.0,72.0,0.016777216000000005,7,0.5480839000083506,0.7803869999479502,1,,,,,,,,,,1905_1145,60.0,
,,,,0,46,-1,0,0.0969100130080564,0.016777216000000005,,,,,,,,,staircase,439.511299100006,102.0,6.0,2.0,72.0,0.016777216000000005,7,1.0138928999658674,1.2318566001486033,0,,,,,,,,,,1905_1145,60.0,
,,,,0,47,-1,0,0.0969100130080564,0.020971520000000007,,,,,,,,,staircase,444.26288580009714,126.0,6.0,2.0,72.0,0.020971520000000007,0,1.4881387001369148,1.6898839001078159,1,,,,,,,,,,1905_1145,60.0,
,,,,0,48,-1,0,0.0969100130080564,0.020971520000000007,,,,,,,,,staircase,450.3211336999666,114.0,6.0,2.0,72.0,0.020971520000000007,6,0.8365903000812978,1.0689445999450982,1,,,,,,,,,,1905_1145,60.0,
,,,,0,49,-1,0,0.0969100130080564,0.016777216000000005,,,,,,,,,staircase,455.74028290016577,108.0,6.0,2.0,72.0,0.016777216000000005,6,0.33320780005306005,0.56522520002909,0,,,,,,,,,,1905_1145,60.0,
,,,,0,50,-1,0,0.0969100130080564,0.020971520000000007,,,,,,,,,staircase,459.94152150000446,102.0,6.0,2.0,72.0,0.020971520000000007,7,0.8953021999914199,1.1783272998873144,1,,,,,,,,,,1905_1145,60.0,
,,,,0,51,-1,0,0.0969100130080564,0.020971520000000007,,,,,,,,,staircase,464.66099360003136,114.0,6.0,2.0,72.0,0.020971520000000007,7,0.35194840002804995,0.6569472998380661,1,,,,,,,,,,1905_1145,60.0,
,,,,0,52,-1,0,0.0969100130080564,0.016777216000000005,,,,,,,,,staircase,469.2218767001759,120.0,6.0,2.0,72.0,0.016777216000000005,7,0.9985197000205517,1.2486195999663323,0,,,,,,,,,,1905_1145,60.0,
,,,,0,53,-1,0,0.0969100130080564,0.020971520000000007,,,,,,,,,staircase,474.48720770003274,102.0,6.0,2.0,72.0,0.020971520000000007,7,0.8094170999247581,0.9786763999145478,0,,,,,,,,,,1905_1145,60.0,
,,,,0,54,-1,0,0.0969100130080564,0.02621440000000001,,,,,,,,,staircase,478.97448330000043,138.0,6.0,2.0,72.0,0.02621440000000001,1,0.3765618000179529,0.5626052999868989,1,,,,,,,,,,1905_1145,60.0,
,,,,0,55,-1,0,0.0969100130080564,0.02621440000000001,,,,,,,,,staircase,483.64357340009883,150.0,6.0,2.0,72.0,0.02621440000000001,6,0.7914148001000285,1.022544100182131,0,,,,,,,,,,1905_1145,60.0,
,,,,0,56,-1,0,0.0969100130080564,0.03276800000000001,,,,,,,,,staircase,488.99686409998685,120.0,6.0,2.0,72.0,0.03276800000000001,7,1.0884147000033408,1.3213458999525756,1,,,,,,,,,,1905_1145,60.0,
,,,,0,57,-1,0,0.0969100130080564,0.03276800000000001,,,,,,,,,staircase,494.753585500177,126.0,6.0,2.0,72.0,0.03276800000000001,1,0.6758049000054598,0.8597163998056203,1,,,,,,,,,,1905_1145,60.0,
,,,,0,58,-1,0,0.0969100130080564,0.02621440000000001,,,,,,,,,staircase,499.5205988001544,102.0,6.0,2.0,72.0,0.02621440000000001,6,0.8279562001116574,1.0602624001912773,1,,,,,,,,,,1905_1145,60.0,
,,,,0,59,-1,0,0.0969100130080564,0.02621440000000001,,,,,,,,,staircase,504.0910070000682,126.0,6.0,2.0,72.0,0.02621440000000001,0,0.3277544002048671,0.5102808000519872,1,,,,,,,,,,1905_1145,60.0,
,,,,0,60,-1,0,0.0969100130080564,0.020971520000000007,,,,,,,,,staircase,508.5110371001065,132.0,6.0,2.0,72.0,0.020971520000000007,6,0.4228046000935137,0.6395930000580847,1,,,,,,,,,,1905_1145,60.0,
,,,,0,61,-1,0,0.0969100130080564,0.020971520000000007,,,,,,,,,staircase,513.4056133001577,96.0,6.0,2.0,72.0,0.020971520000000007,6,0.2952847999986261,0.4953508998733014,1,,,,,,,,,,1905_1145,60.0,
,,,,0,62,-1,0,0.0969100130080564,0.016777216000000005,,,,,,,,,staircase,517.4873341000639,108.0,6.0,2.0,72.0,0.016777216000000005,6,0.45822879998013377,0.6272253000643104,0,,,,,,,,,,1905_1145,60.0,
,,,,0,63,-1,0,0.0969100130080564,0.020971520000000007,,,,,,,,,staircase,521.7231060001068,108.0,6.0,2.0,72.0,0.020971520000000007,1,0.6943419999442995,0.8611971000209451,0,,,,,,,,,,1905_1145,60.0,
,,,,0,64,-1,0,0.0969100130080564,0.02621440000000001,,,,,,,,,staircase,526.1917441000696,114.0,6.0,2.0,72.0,0.02621440000000001,7,0.2473734999075532,0.42994860000908375,1,,,,,,,,,,1905_1145,60.0,
,,,,0,65,-1,0,0.0969100130080564,0.02621440000000001,,,,,,,,,staircase,530.3278398001567,102.0,6.0,2.0,72.0,0.02621440000000001,1,0.48464770009741187,0.6190337999723852,1,,,,,,,,,,1905_1145,60.0,
,,,,0,66,-1,0,0.0969100130080564,0.020971520000000007,,,,,,,,,staircase,534.4520915001631,114.0,6.0,2.0,72.0,0.020971520000000007,0,0.5069719001185149,0.724517600145191,1,,,,,,,,,,1905_1145,60.0,
,,,,0,67,-1,0,0.0969100130080564,0.020971520000000007,,,,,,,,,staircase,539.3218637001701,114.0,6.0,2.0,72.0,0.020971520000000007,7,1.3454423998482525,1.5118405998218805,0,,,,,,,,,,1905_1145,60.0,
,,,,0,68,-1,0,0.0969100130080564,0.02621440000000001,,,,,,,,,staircase,544.5392500001471,108.0,6.0,2.0,72.0,0.02621440000000001,1,0.3446064000017941,0.49585340009070933,1,,,,,,,,,,1905_1145,60.0,
,,,,0,69,-1,0,0.0969100130080564,0.02621440000000001,,,,,,,,,staircase,548.6427009000909,102.0,6.0,2.0,72.0,0.02621440000000001,7,0.6467348001897335,0.8468788000755012,1,,,,,,,,,,1905_1145,60.0,
-77,77,-45,allcue,0,-1,-1,0,,,,,,,,,,,session,552.9984665999655,114.0,6.0,2.0,72.0,0.02621440000000001,1,2.072175099980086,2.1736681000329554,,2,2.633106099907309,2.834713799878955,6,5.086781200021505,5.270483500091359,,,,1905_1145,60.0,
77,77,0,centralcue,0,-1,-1,0,,,,,,,,,,,session,567.3082515001297,96.0,6.0,2.0,72.0,0.02621440000000001,0,1.0606544001493603,1.2291439000982791,,5,1.4962629999499768,1.6961179000791162,6,1.4248981999699026,1.590959700057283,,,,1905_1145,60.0,
77,77,45,locationcue,0,-1,-1,0,,,,,,,,,,,session,575.2789382999763,150.0,6.0,2.0,72.0,0.02621440000000001,7,1.5197495000902563,1.7012148001231253,,5,1.405099700205028,1.5891312002204359,6,1.649463800014928,1.8169153998605907,,,,1905_1145,60.0,
77,77,90,nocue,0,-1,-1,0,,,,,,,,,,,session,585.0597379000392,144.0,6.0,2.0,72.0,0.02621440000000001,1,0.8107370999641716,0.9441567999310791,,2,4.080609300173819,4.280787100084126,0,0.99095100001432,1.2260398000944406,,,,1905_1145,60.0,
77,77,-45,allcue,0,-1,-1,0,,,,,,,,,,,session,595.7967291001696,132.0,6.0,2.0,72.0,0.02621440000000001,1,1.2330964000429958,1.3916303999722004,,5,1.0959232000168413,1.2755701998248696,7,2.311772899935022,2.4617526999209076,,,,1905_1145,60.0,
,,,,0,-1,-1,0,,,materials/instructions\11_session_start.png,605.0355201000348,618.2596389001701,0,13.038643799955025,13.222339499974623,0.022345300065353513,13.229907599976286,,,,,,,,,,,,,,,,,,,,,1905_1145,60.0,
,,,,0,-1,-1,0,,,,,,,,,,,,,,,,,,,,,,,,,,,,0.02438922240000001,,,1905_1145,60.0,
77,-77,45,centralcue,0,0,0,26,,,,,,,,,,,session,618.2755591000896,120.0,6.0,2.0,72.0,0.02438922240000001,1,2.2618944998830557,2.461842499906197,,4,1.449371799826622,1.6704551000148058,6,0.4671638000290841,0.617080100113526,,60.0,72.0,1905_1145,60.0,
77,77,-45,locationcue,0,1,1,32,,,,,,,,,,,session,629.2266220001038,102.0,6.0,2.0,72.0,0.02438922240000001,1,0.6233834999147803,0.7391985999420285,,5,0.864529199898243,1.014689799863845,6,1.5019124001264572,1.668785500107333,,63.0,51.0,1905_1145,60.0,
77,77,45,allcue,0,2,2,2,,,,,,,,,,,session,638.1953706000932,150.0,6.0,2.0,72.0,0.02438922240000001,7,0.9599266999866813,1.2267758001107723,,5,0.7807040000334382,0.9633535998873413,6,0.2897940000984818,0.421626599971205,,57.0,63.0,1905_1145,60.0,
-77,-77,90,locationcue,0,3,3,47,,,,,,,,,,,session,647.2597149000503,132.0,6.0,2.0,72.0,0.02438922240000001,6,1.3311095000244677,1.5146221001632512,,3,1.5783797998446971,1.74486259999685,6,0.36594379995949566,0.5160342999733984,,72.0,54.0,1905_1145,60.0,
-77,-77,45,centralcue,0,4,4,30,,,,,,,,,,,session,657.2923250000458,120.0,6.0,2.0,72.0,0.02438922240000001,7,1.0920434000436217,1.3263309998437762,,3,1.2511164001189172,1.436446800129488,6,0.28048860002309084,0.4242202998138964,,69.0,63.0,1905_1145,60.0,
-77,77,0,locationcue,0,5,5,37,,,,,,,,,,,session,666.6190869000275,144.0,6.0,2.0,72.0,0.02438922240000001,0,1.6173982000909746,1.8157047999557108,,2,1.0116597001906484,1.179060700116679,7,0.5345801000948995,0.684705900028348,,51.0,57.0,1905_1145,60.0,
-77,-77,0,locationcue,0,6,6,45,,,,,,,,,,,session,677.0072161001153,150.0,6.0,2.0,72.0,0.02438922240000001,0,1.3555170998442918,1.5879079999867827,,3,1.3130817001219839,1.5126052000559866,7,0.3040233999490738,0.42256910004653037,,72.0,69.0,1905_1145,60.0,
-77,-77,90,allcue,0,7,7,15,,,,,,,,,,,session,687.3168566999957,96.0,6.0,2.0,72.0,0.02438922240000001,6,0.9942783999722451,1.2119632000103593,,3,1.3919732000213116,1.678301600040868,7,0.33089419989846647,0.516956599894911,,63.0,60.0,1905_1145,60.0,
-77,77,45,centralcue,0,8,8,22,,,,,,,,,,,session,697.0766434001271,150.0,6.0,2.0,72.0,0.02438922240000001,7,0.914944700198248,1.0975889000110328,,2,1.1518026001285762,1.3010454000905156,6,0.9336679000407457,1.0830356001388282,,48.0,48.0,1905_1145,60.0,
77,-77,90,nocue,0,9,9,59,,,,,,,,,,,session,706.5944939001929,114.0,6.0,2.0,72.0,0.02438922240000001,7,1.0612326001282781,1.2247452000156045,,5,3.1026093000546098,3.3391827000305057,0,0.5423842000309378,0.7426362000405788,,51.0,66.0,1905_1145,60.0,
-77,-77,-45,centralcue,0,10,10,28,,,,,,,,,,,session,717.7241007999983,132.0,6.0,2.0,72.0,0.02438922240000001,1,1.31373649998568,1.4980226000770926,,3,1.140067300060764,1.3069738000631332,1,2.334555499954149,2.5190691999159753,,48.0,54.0,1905_1145,60.0,
-77,77,90,centralcue,0,11,11,23,,,,,,,,,,,session,728.8987533000764,150.0,6.0,2.0,72.0,0.02438922240000001,6,0.7599885000381619,0.8788232000079006,,2,1.2048647999763489,1.400918300030753,6,0.867346900049597,1.0340341001283377,,66.0,51.0,1905_1145,60.0,
77,-77,90,allcue,0,12,12,11,,,,,,,,,,,session,738.8560083999764,108.0,6.0,2.0,72.0,0.02438922240000001,6,0.5605638001579791,0.7098255001474172,,4,1.5134945001918823,1.8799172001890838,6,0.33667850005440414,0.5039463001303375,,72.0,63.0,1905_1145,60.0,
-77,77,45,locationcue,0,13,13,38,,,,,,,,,,,session,747.9441847000271,108.0,6.0,2.0,72.0,0.02438922240000001,7,0.8318187999539077,1.021877999883145,,2,0.9278218999970704,1.1279672000091523,1,0.685852900147438,0.8855246000457555,,57.0,69.0,1905_1145,60.0,
-77,-77,0,allcue,0,14,14,13,,,,,,,,,,,session,756.8268335000612,120.0,6.0,2.0,72.0,0.02438922240000001,0,1.3816552001517266,1.5817617001011968,,3,0.8630338998045772,1.0483262999914587,6,1.121882500126958,1.2888853000476956,,63.0,48.0,1905_1145,60.0,
77,-77,90,locationcue,0,15,15,43,,,,,,,,,,,session,766.6256163001526,114.0,6.0,2.0,72.0,0.02438922240000001,6,0.4826849999371916,0.629956099903211,,4,1.3652526000514627,1.5823828999418765,1,0.3536491000559181,0.5370757000055164,,51.0,63.0,1905_1145,60.0,
77,-77,90,locationcue,0,15,15,43,,,materials/instructions\12_break.png,775.1369692001026,779.7054570000619,0,4.416718499967828,4.566707400139421,0.013599999947473407,4.5743563999421895,,,,,,,,,,,,,,,,,,,,,1905_1145,60.0,
77,77,0,allcue,0,16,16,1,,,,,,,,,,,session,779.7213890000712,120.0,6.0,2.0,72.0,0.02438922240000001,0,1.1174263001885265,1.267445300007239,,5,1.1753736999817193,1.339940199861303,6,0.820274299941957,0.9876717999577522,,51.0,60.0,1905_1145,60.0,
77,77,90,locationcue,0,17,17,35,,,,,,,,,,,session,789.1434216999914,114.0,6.0,2.0,72.0,0.02438922240000001,6,1.9613600000739098,2.094782100059092,,5,1.2435833001509309,1.42877610004507,6,1.3290353999473155,1.4340548000764102,,63.0,57.0,1905_1145,60.0,
77,77,-45,allcue,0,18,18,0,,,,,,,,,,,session,799.976719400147,150.0,6.0,2.0,72.0,0.02438922240000001,1,0.6595912999473512,0.8268309999257326,,5,0.8464261000044644,1.014523700112477,6,0.33809250011108816,0.5370081001892686,,63.0,54.0,1905_1145,60.0,
77,-77,0,allcue,0,19,19,9,,,,,,,,,,,session,809.1074799001217,132.0,6.0,2.0,72.0,0.02438922240000001,0,1.3640211999882013,1.5508344999980181,,4,2.153233699966222,2.3671520000789315,6,0.8350108999293298,0.9860696999821812,,60.0,48.0,1905_1145,60.0,
-77,-77,0,centralcue,0,20,20,29,,,,,,,,,,,session,819.9500623999629,120.0,6.0,2.0,72.0,0.02438922240000001,0,0.462856600061059,0.6294631001073867,,3,1.156936600105837,1.3401544000953436,6,3.4839887998532504,3.684261600021273,,66.0,48.0,1905_1145,60.0,
-77,-77,45,nocue,0,21,21,62,,,,,,,,,,,session,832.2266457001679,102.0,6.0,2.0,72.0,0.02438922240000001,1,0.8495174001436681,1.0002902999985963,,3,1.3008400998078287,1.5321417998056859,1,0.708066999912262,0.8491469998843968,,48.0,48.0,1905_1145,60.0,
-77,-77,0,nocue,0,22,22,61,,,,,,,,,,,session,840.8427146000322,120.0,6.0,2.0,72.0,0.02438922240000001,0,1.6088868000078946,1.7931003000121564,,3,0.8556479001417756,1.0351599000860006,6,0.3039089001249522,0.4739318999927491,,54.0,51.0,1905_1145,60.0,
77,-77,0,centralcue,0,23,23,25,,,,,,,,,,,session,850.5796599001624,144.0,6.0,2.0,72.0,0.02438922240000001,0,0.4595489001367241,0.6592602001037449,,4,1.3136023001279682,1.4787890000734478,1,6.5105371999088675,6.699147899867967,,69.0,57.0,1905_1145,60.0,
77,77,90,nocue,0,24,24,51,,,,,,,,,,,session,866.0992052000947,96.0,6.0,2.0,72.0,0.02438922240000001,6,0.9449100000783801,1.091240300098434,,5,1.4673647000454366,1.6213181999046355,1,0.48320179991424084,0.7020477999467403,,66.0,66.0,1905_1145,60.0,
-77,77,0,nocue,0,25,25,53,,,,,,,,,,,session,878.162711400073,132.0,6.0,2.0,72.0,0.02438922240000001,0,0.5874783999752253,0.7879933000076562,,2,0.719566100044176,0.8838067001197487,6,1.5880094999447465,1.7199315000325441,,48.0,63.0,1905_1145,60.0,
-77,77,-45,locationcue,0,26,26,36,,,,,,,,,,,session,890.8989677000791,108.0,6.0,2.0,72.0,0.02438922240000001,6,1.2733887999784201,1.4255584999918938,,2,4.040175399975851,4.206588099943474,0,0.4297935999929905,0.628774399869144,,72.0,48.0,1905_1145,60.0,
-77,77,0,allcue,0,27,27,5,,,,,,,,,,,session,905.2258913000114,96.0,6.0,2.0,72.0,0.02438922240000001,0,0.6998980999924242,0.9009578998666257,,2,1.061768899904564,1.2254031000193208,1,0.686994600109756,0.8368832000996917,,54.0,69.0,1905_1145,60.0,
77,-77,90,centralcue,0,28,28,27,,,,,,,,,,,session,915.8586474000476,108.0,6.0,2.0,72.0,0.02438922240000001,6,0.43080460000783205,0.5832378999330103,,4,1.3461200001183897,1.5295313000679016,6,1.7390352000948042,1.9045216999948025,,63.0,51.0,1905_1145,60.0,
-77,-77,-45,allcue,0,29,29,12,,,,,,,,,,,session,925.4976946001407,150.0,6.0,2.0,72.0,0.02438922240000001,1,1.0371241001412272,1.1654812002088875,,3,0.48148449999280274,0.6825610999949276,6,0.3501975000835955,0.4656948000192642,,72.0,51.0,1905_1145,60.0,
-77,-77,45,locationcue,0,30,30,46,,,,,,,,,,,session,934.7080098001752,96.0,6.0,2.0,72.0,0.02438922240000001,1,0.33215959998779,0.4874058999121189,,3,1.4620275998022407,1.624284999910742,0,0.31871769996359944,0.5161309000104666,,60.0,54.0,1905_1145,60.0,
77,77,0,nocue,0,31,31,49,,,,,,,,,,,session,944.6152208000422,150.0,6.0,2.0,72.0,0.02438922240000001,0,0.34982070000842214,0.5420934001449496,,5,0.39449690002948046,0.5555249000899494,6,0.9764015998225659,1.083755699917674,,66.0,48.0,1905_1145,60.0,
77,77,0,nocue,0,31,31,49,,,materials/instructions\12_break.png,956.6565158001613,1006.8231300001498,0,49.980072000063956,50.165199800161645,0.017923699924722314,50.170113699976355,,,,,,,,,,,,,,,,,,,,,1905_1145,60.0,
-77,-77,90,nocue,0,32,32,63,,,,,,,,,,,session,1006.8393467999995,108.0,6.0,2.0,72.0,0.02438922240000001,6,0.5888428001198918,0.7700428999960423,,3,0.35033849999308586,0.6177427000366151,6,0.3033690000884235,0.48702990007586777,,66.0,54.0,1905_1145,60.0,
-77,77,-45,nocue,0,33,33,52,,,,,,,,,,,session,1014.4648869000375,138.0,6.0,2.0,72.0,0.02438922240000001,1,1.4356180999893695,1.5923481001518667,,2,0.7022471998352557,0.8361594998277724,1,0.591087199980393,0.7953041999135166,,54.0,51.0,1905_1145,60.0,
77,77,45,centralcue,0,34,34,18,,,,,,,,,,,session,1023.6798019001726,120.0,6.0,2.0,72.0,0.02438922240000001,7,0.9290936000179499,1.077189499977976,,5,0.743179899873212,0.9097269999329001,1,0.36882210010662675,0.6033189001027495,,69.0,54.0,1905_1145,60.0,
-77,77,-45,centralcue,0,35,35,20,,,,,,,,,,,session,1032.2779781999998,132.0,6.0,2.0,72.0,0.02438922240000001,1,0.6458473999518901,0.8781020001042634,,2,0.9635826998855919,1.145257700001821,6,0.3704144998919219,0.5537334000691772,,48.0,48.0,1905_1145,60.0,
-77,77,90,allcue,0,36,36,7,,,,,,,,,,,session,1040.6515232000966,126.0,6.0,2.0,72.0,0.02438922240000001,6,0.5047017000615597,0.7375139999203384,,2,1.0594086998607963,1.2432251998689026,7,0.5374561999924481,0.7689531999640167,,57.0,66.0,1905_1145,60.0,
-77,77,90,locationcue,0,37,37,39,,,,,,,,,,,session,1050.012873900123,114.0,6.0,2.0,72.0,0.02438922240000001,6,0.47958569996990263,0.6629068001639098,,2,1.0269456000532955,1.194486299995333,6,0.5202939000446349,0.6854673000052571,,69.0,54.0,1905_1145,60.0,
77,-77,45,locationcue,0,38,38,42,,,,,,,,,,,session,1058.466466100188,114.0,6.0,2.0,72.0,0.02438922240000001,7,0.4605620000511408,0.6267281998880208,,4,1.3662610000465065,1.6010479000397027,6,1.367504599969834,1.5305313998833299,,72.0,66.0,1905_1145,60.0,
77,-77,-45,nocue,0,39,39,56,,,,,,,,,,,session,1068.391628100071,120.0,6.0,2.0,72.0,0.02438922240000001,7,0.5614868002012372,0.7781963001471013,,4,0.744427900062874,0.9449267000891268,6,1.1518930001184344,1.2689942999277264,,69.0,51.0,1905_1145,60.0,
-77,-77,45,allcue,0,40,40,14,,,,,,,,,,,session,1077.3629950000905,120.0,6.0,2.0,72.0,0.02438922240000001,7,0.9598801000975072,1.2940291999839246,,3,0.7451341000851244,0.9951748999301344,1,0.5987243999261409,0.7888074000366032,,72.0,51.0,1905_1145,60.0,
77,-77,0,locationcue,0,41,41,41,,,,,,,,,,,session,1086.4796057001222,108.0,6.0,2.0,72.0,0.02438922240000001,7,1.4915618000086397,1.6264622998423874,,4,1.7771112998016179,1.9935184998903424,6,0.48844839981757104,0.6405107998289168,,51.0,72.0,1905_1145,60.0,
77,77,45,nocue,0,42,42,50,,,,,,,,,,,session,1096.9159164000303,144.0,6.0,2.0,72.0,0.02438922240000001,7,0.6480792001821101,0.7986676001455635,,5,1.530520300148055,1.6976751000620425,6,1.2724477001465857,1.3895388001110405,,72.0,60.0,1905_1145,60.0,
77,77,90,allcue,0,43,43,3,,,,,,,,,,,session,1107.3361649001017,144.0,6.0,2.0,72.0,0.02438922240000001,6,0.500656699994579,0.6350074000656605,,5,0.6054970999248326,0.7910523000173271,6,0.7633119998499751,0.8970037999097258,,57.0,63.0,1905_1145,60.0,
-77,-77,-45,nocue,0,44,44,60,,,,,,,,,,,session,1116.6624796001706,108.0,6.0,2.0,72.0,0.02438922240000001,1,1.5979166000615805,1.7973083001561463,,3,1.265517600113526,1.482268299907446,6,0.801620100159198,0.9335005001630634,,54.0,63.0,1905_1145,60.0,
77,-77,-45,allcue,0,45,45,8,,,,,,,,,,,session,1126.5661094000097,108.0,6.0,2.0,72.0,0.02438922240000001,1,1.4770833000075072,1.6572509999386966,,4,1.156029999954626,1.334618599852547,6,0.30041150003671646,0.43414460006169975,,54.0,57.0,1905_1145,60.0,
77,-77,-45,locationcue,0,46,46,40,,,,,,,,,,,session,1135.6109913000837,120.0,6.0,2.0,72.0,0.02438922240000001,1,0.9806107999756932,1.2303881000261754,,4,1.1779018000233918,1.4114719999488443,1,0.40489139989949763,0.588232799898833,,51.0,57.0,1905_1145,60.0,
77,77,45,locationcue,0,47,47,34,,,,,,,,,,,session,1144.5809294001665,102.0,6.0,2.0,72.0,0.02438922240000001,7,0.6663003999274224,0.8323160000145435,,5,0.9988067001104355,1.1822385000996292,6,0.5075109999161214,0.663672799943015,,66.0,54.0,1905_1145,60.0,
77,77,45,locationcue,0,47,47,34,,,materials/instructions\12_break.png,1152.9605172001757,1155.1253762000706,0,2.0088378000073135,2.1628658999688923,0.011596899945288897,2.1709569999948144,,,,,,,,,,,,,,,,,,,,,1905_1145,60.0,
-77,77,45,allcue,0,48,48,6,,,,,,,,,,,session,1155.1416668000165,114.0,6.0,2.0,72.0,0.02438922240000001,7,0.8981202999129891,1.0644994999747723,,2,1.0988646999467164,1.2814080999232829,6,1.2844773000106215,1.4345829000230879,,51.0,51.0,1905_1145,60.0,
-77,-77,90,centralcue,0,49,49,31,,,,,,,,,,,session,1164.4791912001092,108.0,6.0,2.0,72.0,0.02438922240000001,6,0.4988764999434352,0.6325590999331325,,3,0.42652809992432594,0.6949714999645948,1,0.7009149000514299,0.8816409001592547,,60.0,66.0,1905_1145,60.0,
-77,77,-45,allcue,0,50,50,4,,,,,,,,,,,session,1172.5347772000823,138.0,6.0,2.0,72.0,0.02438922240000001,1,0.9325657999143004,1.1472614998929203,,2,0.7592819000128657,0.9069753000512719,1,0.3507343998644501,0.5507479999214411,,48.0,57.0,1905_1145,60.0,
-77,77,0,centralcue,0,51,51,21,,,,,,,,,,,session,1181.6953420001082,108.0,6.0,2.0,72.0,0.02438922240000001,0,0.4301531999371946,0.6470365000423044,,2,1.1136570000089705,1.2643770999275148,6,2.133214300032705,2.3007467999123037,,54.0,54.0,1905_1145,60.0,
77,77,0,centralcue,0,52,52,17,,,,,,,,,,,session,1191.4505072000902,132.0,6.0,2.0,72.0,0.02438922240000001,0,1.4565604999661446,1.6729467001277953,,5,0.8611880000680685,1.0426367002073675,6,0.3389490998815745,0.5027149000670761,,72.0,63.0,1905_1145,60.0,
77,-77,0,nocue,0,53,53,57,,,,,,,,,,,session,1201.0937280000653,96.0,6.0,2.0,72.0,0.02438922240000001,0,0.9432399000506848,1.142875500023365,,4,1.3817398000974208,1.6130246000830084,6,0.28981820004992187,0.4076696999836713,,48.0,51.0,1905_1145,60.0,
-77,77,90,nocue,0,54,54,55,,,,,,,,,,,session,1209.4668263001367,150.0,6.0,2.0,72.0,0.02438922240000001,6,0.38197039999067783,0.5495299000758678,,2,0.8580002998933196,1.0090062997769564,1,0.38929590000770986,0.552788499975577,,51.0,48.0,1905_1145,60.0,
-77,-77,-45,locationcue,0,55,55,44,,,,,,,,,,,session,1217.6683481000364,150.0,6.0,2.0,72.0,0.02438922240000001,1,1.412494400050491,1.6111753999721259,,3,1.2067994000390172,1.4070975000504404,6,0.320245600072667,0.45312870014458895,,63.0,54.0,1905_1145,60.0,
77,77,-45,nocue,0,56,56,48,,,,,,,,,,,session,1227.9452931999695,132.0,6.0,2.0,72.0,0.02438922240000001,1,0.7228536999318749,0.9535079998895526,,5,1.447310500079766,1.6292994001414627,6,0.33344849990680814,0.48254360002465546,,60.0,72.0,1905_1145,60.0,
77,77,90,centralcue,0,57,57,19,,,,,,,,,,,session,1237.3506100000814,114.0,6.0,2.0,72.0,0.02438922240000001,6,0.34129330003634095,0.49531130003742874,,5,0.5755122001282871,0.7495274001266807,6,0.2927879001945257,0.44310270017012954,,60.0,69.0,1905_1145,60.0,
-77,77,45,nocue,0,58,58,54,,,,,,,,,,,session,1245.211909300182,150.0,6.0,2.0,72.0,0.02438922240000001,1,0.42902750009670854,1.4971311001572758,,2,0.7442326000891626,0.9115909000393003,6,1.0715555001515895,1.2050216000061482,,69.0,63.0,1905_1145,60.0,
77,-77,45,allcue,0,59,59,10,,,,,,,,,,,session,1255.4690323001705,114.0,6.0,2.0,72.0,0.02438922240000001,7,0.9686841000802815,1.1288419999182224,,4,1.2122130000498146,1.4303717000875622,6,0.5111450999975204,0.646946599939838,,69.0,66.0,1905_1145,60.0,
77,77,0,locationcue,0,60,60,33,,,,,,,,,,,session,1264.7975118001923,132.0,6.0,2.0,72.0,0.02438922240000001,0,1.0974568000528961,1.2974135000258684,,5,1.543485299916938,1.744113399880007,7,0.2872562000993639,0.43746150005608797,,66.0,69.0,1905_1145,60.0,
77,77,-45,centralcue,0,61,61,16,,,,,,,,,,,session,1274.6808503000066,120.0,6.0,2.0,72.0,0.02438922240000001,1,0.8263910000678152,1.0765295000746846,,5,0.5314646998886019,0.7130171998869628,7,0.32042030012235045,0.5524083999916911,,51.0,51.0,1905_1145,60.0,
77,-77,-45,centralcue,0,62,62,24,,,,,,,,,,,session,1282.6681013000198,96.0,6.0,2.0,72.0,0.02438922240000001,1,0.8758245001081377,1.0460854000411928,,4,0.471784699941054,0.6513783999253064,6,0.2490199999883771,0.40014349995180964,,57.0,69.0,1905_1145,60.0,
77,-77,45,nocue,0,63,63,58,,,,,,,,,,,session,1290.846309200162,96.0,6.0,2.0,72.0,0.02438922240000001,7,1.2957190999295563,1.429463699925691,,4,0.9115923000499606,1.0932223000563681,7,0.601115999976173,0.7486745999194682,,72.0,54.0,1905_1145,60.0,
77,-77,45,nocue,0,63,63,58,,,materials/instructions\12_break.png,1299.785701500019,1309.6906028999947,0,9.772238000063226,9.903017400065437,0.014803800033405423,9.913186999969184,,,,,,,,,,,,,,,,,,,,,1905_1145,60.0,
-77,77,-45,locationcue,1,0,64,36,,,,,,,,,,,session,1309.7091396001633,138.0,6.0,2.0,72.0,0.02438922240000001,1,0.530765799805522,0.7142227999866009,,2,0.775534600019455,0.9422317000571638,6,0.29830839997157454,0.4493032998871058,,66.0,54.0,1905_1145,60.0,
-77,77,0,nocue,1,1,65,53,,,,,,,,,,,session,1318.0628766000737,138.0,6.0,2.0,72.0,0.02438922240000001,0,0.4471537000499666,0.6968145000282675,,2,0.6487571001052856,0.827884400030598,6,0.2814465002156794,0.41508750012144446,,57.0,60.0,1905_1145,60.0,
77,77,-45,locationcue,1,2,66,32,,,,,,,,,,,session,1326.2025864999741,126.0,6.0,2.0,72.0,0.02438922240000001,7,1.6101355000864714,1.7439158998895437,,5,1.2511563000734895,1.4029119999613613,1,0.35059179994277656,0.46569389989599586,,66.0,48.0,1905_1145,60.0,
77,-77,0,nocue,1,3,67,57,,,,,,,,,,,session,1336.060931700049,132.0,6.0,2.0,72.0,0.02438922240000001,0,0.3646187998820096,0.5977193999569863,,4,0.528102400014177,0.7281971999909729,6,0.3511391000356525,0.5505446998868138,,54.0,66.0,1905_1145,60.0,
77,-77,0,allcue,1,4,68,9,,,,,,,,,,,session,1344.083930999972,102.0,6.0,2.0,72.0,0.02438922240000001,0,0.281153199961409,0.46639210009016097,,4,1.5435806999448687,1.729689900064841,6,0.27750020008534193,0.42995630018413067,,54.0,69.0,1905_1145,60.0,
-77,-77,0,centralcue,1,5,69,29,,,,,,,,,,,session,1352.4141578001436,150.0,6.0,2.0,72.0,0.02438922240000001,0,0.3277739998884499,0.5464008999988437,,3,1.2808287001680583,1.4810280001256615,1,0.3025382999330759,0.48614119994454086,,72.0,69.0,1905_1145,60.0,
77,-77,45,centralcue,1,6,70,26,,,,,,,,,,,session,1361.93006839999,108.0,6.0,2.0,72.0,0.02438922240000001,7,0.47613060008734465,0.6600755001418293,,4,0.5651414999738336,0.7661357000470161,6,0.3001568999607116,0.38362589990720153,,66.0,69.0,1905_1145,60.0,
-77,77,90,centralcue,1,7,71,23,,,,,,,,,,,session,1369.7366025999654,96.0,6.0,2.0,72.0,0.02438922240000001,6,0.29318979987874627,0.4268991998396814,,3,1.8712641999591142,2.0714417998678982,0,0.2915469000581652,0.5064957998692989,,54.0,69.0,1905_1145,60.0,
77,77,-45,nocue,1,8,72,48,,,,,,,,,,,session,1378.509948800085,96.0,6.0,2.0,72.0,0.02438922240000001,1,0.9436449999921024,1.077187499962747,,5,0.9632898001000285,1.1631722000893205,6,0.2868695999495685,0.43736530002206564,,72.0,72.0,1905_1145,60.0,
-77,77,90,locationcue,1,9,73,39,,,,,,,,,,,session,1387.166506400099,120.0,6.0,2.0,72.0,0.02438922240000001,6,0.7423580999020487,0.9096353999339044,,2,1.3348032999783754,1.5010709001217037,0,0.3911355999298394,0.5551146999932826,,51.0,51.0,1905_1145,60.0,
77,-77,-45,nocue,1,10,74,56,,,,,,,,,,,session,1395.7881777000148,144.0,6.0,2.0,72.0,0.02438922240000001,1,1.2967643002048135,1.5112640000879765,,4,0.5130447999108583,0.7309655998833477,6,1.4689307000953704,1.618256000103429,,60.0,72.0,1905_1145,60.0,
77,77,0,nocue,1,11,75,49,,,,,,,,,,,session,1406.5661394000053,150.0,6.0,2.0,72.0,0.02438922240000001,0,0.3347469000145793,0.5688948000315577,,5,0.5295498000923544,0.6803238000720739,6,0.3140117002185434,0.4813368001487106,,48.0,66.0,1905_1145,60.0,
77,-77,90,nocue,1,12,76,59,,,,,,,,,,,session,1414.6387699001934,144.0,6.0,2.0,72.0,0.02438922240000001,6,0.5283357999287546,0.6948879000265151,,4,0.38917919993400574,0.5410062000155449,6,0.9857823001220822,1.1199636000674218,,66.0,69.0,1905_1145,60.0,
-77,77,45,allcue,1,13,77,6,,,,,,,,,,,session,1424.1657318000216,114.0,6.0,2.0,72.0,0.02438922240000001,7,1.0294340001419187,1.1627273000776768,,2,0.8839768001344055,1.0662345001474023,6,0.802873200038448,0.919499000068754,,51.0,51.0,1905_1145,60.0,
77,-77,45,allcue,1,14,78,10,,,,,,,,,,,session,1432.8850710000843,120.0,6.0,2.0,72.0,0.02438922240000001,7,1.3207517000846565,1.4371315999887884,,4,0.4053964999038726,0.5880799998994917,6,0.2940015001222491,0.42775580007582903,,69.0,66.0,1905_1145,60.0,
-77,-77,-45,allcue,1,15,79,12,,,,,,,,,,,session,1441.5486211001407,126.0,6.0,2.0,72.0,0.02438922240000001,1,0.5142741999588907,0.647176600061357,,3,0.9121258999221027,1.0945874999742955,6,0.3256180000025779,0.4718847998883575,,69.0,54.0,1905_1145,60.0,
-77,-77,-45,allcue,1,15,79,12,,,materials/instructions\12_break.png,1449.9245323000941,1478.2843316001818,0,28.207540499977767,28.357671600067988,0.023845900082960725,28.365120799979195,,,,,,,,,,,,,,,,,,,,,1905_1145,60.0,
77,77,45,centralcue,1,16,80,18,,,,,,,,,,,session,1478.299714999972,138.0,6.0,2.0,72.0,0.02438922240000001,6,0.5546059000771493,0.7203774000518024,,5,1.5443651999812573,1.6781663000583649,6,0.47571020014584064,0.12830870016478002,,57.0,69.0,1905_1145,60.0,
77,77,90,locationcue,1,17,81,35,,,,,,,,,,,session,1487.532236300176,138.0,6.0,2.0,72.0,0.02438922240000001,6,0.5965809000190347,0.7482161000370979,,5,1.063146600034088,1.2128914000932127,6,0.29800450010225177,0.4155854000709951,,63.0,72.0,1905_1145,60.0,
-77,77,0,locationcue,1,18,82,37,,,,,,,,,,,session,1496.4198376000859,138.0,6.0,2.0,72.0,0.02438922240000001,0,0.379949799971655,0.5470779000315815,,2,0.7607974000275135,0.9605226998683065,7,0.33630719990469515,0.5014181998558342,,54.0,57.0,1905_1145,60.0,
-77,-77,-45,nocue,1,19,83,60,,,,,,,,,,,session,1504.5217275000177,132.0,6.0,2.0,72.0,0.02438922240000001,1,0.9108456999529153,1.128018599934876,,3,0.38523259991779923,0.52156289992854,1,2.3152770998422056,2.448823999846354,,54.0,48.0,1905_1145,60.0,
-77,-77,-45,centralcue,1,20,84,28,,,,,,,,,,,session,1515.0974588000681,144.0,6.0,2.0,72.0,0.02438922240000001,1,0.412805600091815,0.6290383001323789,,3,0.5814769000280648,0.798398100072518,6,0.28450920013710856,0.41832100017927587,,57.0,63.0,1905_1145,60.0,
77,77,0,centralcue,1,21,85,17,,,,,,,,,,,session,1523.3074103000108,96.0,6.0,2.0,72.0,0.02438922240000001,0,2.8390657000709325,3.1423939999658614,,5,0.6784216000232846,0.8796022001188248,6,0.28396750008687377,0.38366040005348623,,72.0,48.0,1905_1145,60.0,
77,77,45,nocue,1,22,86,50,,,,,,,,,,,session,1533.2818980000447,138.0,6.0,2.0,72.0,0.02438922240000001,7,0.9561403999105096,1.1242774999700487,,5,1.274997300002724,1.4251889002043754,1,0.1371605999302119,0.26992439990863204,,57.0,72.0,1905_1145,60.0,
-77,-77,90,allcue,1,23,87,15,,,,,,,,,,,session,1542.4880606001243,144.0,6.0,2.0,72.0,0.02438922240000001,6,0.7129288997966796,0.8559334999881685,,3,0.645180799998343,0.8636994999833405,1,0.980033400002867,1.1469256000127643,,60.0,48.0,1905_1145,60.0,
-77,77,90,allcue,1,24,88,7,,,,,,,,,,,session,1551.5162649000995,120.0,6.0,2.0,72.0,0.02438922240000001,6,0.36458930000662804,0.5479105999693274,,2,0.6796043000649661,0.8634451001416892,1,0.417303099995479,0.5819870000705123,,48.0,63.0,1905_1145,60.0,
-77,-77,0,locationcue,1,25,89,45,,,,,,,,,,,session,1559.4631176001858,102.0,6.0,2.0,72.0,0.02438922240000001,0,1.2299583000130951,1.3942813000176102,,3,0.3116888999938965,0.5116325998678803,1,0.2850224000867456,0.4148959000594914,,72.0,60.0,1905_1145,60.0,
-77,77,45,locationcue,1,26,90,38,,,,,,,,,,,session,1567.6352966001723,132.0,6.0,2.0,72.0,0.02438922240000001,7,1.2482824998442084,1.3981766998767853,,2,0.8418340999633074,0.991931099910289,1,0.29857939993962646,0.46537100011482835,,57.0,57.0,1905_1145,60.0,
77,77,90,centralcue,1,27,91,19,,,,,,,,,,,session,1576.5308552000206,150.0,6.0,2.0,72.0,0.02438922240000001,6,0.3631817998830229,0.5142033998854458,,5,0.4947401999961585,0.6455482000019401,6,0.364872699836269,0.5147511998657137,,54.0,72.0,1905_1145,60.0,
-77,-77,45,nocue,1,28,92,62,,,,,,,,,,,session,1584.7683198000304,132.0,6.0,2.0,72.0,0.02438922240000001,7,1.629622499924153,1.812330299988389,,3,0.32505850004963577,0.5251116000581533,1,0.5929964000824839,0.1930949001107365,,48.0,57.0,1905_1145,60.0,
77,-77,-45,locationcue,1,29,93,40,,,,,,,,,,,session,1593.6093741001096,108.0,6.0,2.0,72.0,0.02438922240000001,1,1.027254099957645,1.2442726998124272,,4,0.5842507998459041,0.7861865998711437,1,0.31543410010635853,0.46405650000087917,,51.0,63.0,1905_1145,60.0,
77,-77,90,allcue,1,30,94,11,,,,,,,,,,,session,1602.331853199983,108.0,6.0,2.0,72.0,0.02438922240000001,6,0.38109509996138513,0.515808500116691,,4,1.8419593998696655,2.0423483999911696,6,1.1850323998369277,1.3176306998357177,,54.0,72.0,1905_1145,60.0,
-77,77,45,centralcue,1,31,95,22,,,,,,,,,,,session,1612.0553461001255,108.0,6.0,2.0,72.0,0.02438922240000001,7,0.37833769991993904,0.532052299939096,,2,1.7047043999191374,1.8867313000373542,6,0.45319290016777813,0.5843961001373827,,66.0,51.0,1905_1145,60.0,
-77,77,45,centralcue,1,31,95,22,,,materials/instructions\12_break.png,1620.9662115999963,1628.597232799977,0,7.4788705999962986,7.62918009981513,0.01689189998432994,7.636835600016639,,,,,,,,,,,,,,,,,,,,,1905_1145,60.0,
77,77,45,allcue,1,32,96,2,,,,,,,,,,,session,1628.6125052999705,144.0,6.0,2.0,72.0,0.02438922240000001,7,0.6778713001403958,0.8451032000593841,,5,0.4451070998329669,0.6084337998181581,6,0.9566842999774963,1.0802305000834167,,57.0,48.0,1905_1145,60.0,
-77,77,90,nocue,1,33,97,55,,,,,,,,,,,session,1637.250063400017,132.0,6.0,2.0,72.0,0.02438922240000001,1,0.4596269999165088,0.5766775999218225,,2,0.4119327000807971,0.5414336000103503,1,2.4705186998471618,2.6039237999357283,,51.0,57.0,1905_1145,60.0,
77,77,0,locationcue,1,34,98,33,,,,,,,,,,,session,1647.266745600151,120.0,6.0,2.0,72.0,0.02438922240000001,0,0.42060690000653267,0.6527515000198036,,5,1.3027446998748928,1.4533788999542594,6,0.505034799920395,0.18701189989224076,,60.0,63.0,1905_1145,60.0,
-77,77,0,allcue,1,35,99,5,,,,,,,,,,,session,1655.875432800036,96.0,6.0,2.0,72.0,0.02438922240000001,0,0.3754992999602109,0.5260532998945564,,2,0.2657945998944342,0.41587099991738796,6,0.29646770004183054,0.447452399879694,,54.0,51.0,1905_1145,60.0,
77,77,-45,allcue,1,36,100,0,,,,,,,,,,,session,1662.5343692000024,108.0,6.0,2.0,72.0,0.02438922240000001,1,0.7596060000360012,0.9270428998861462,,5,0.3281439000274986,0.4947298001497984,7,0.3877230999059975,0.5194280999712646,,57.0,51.0,1905_1145,60.0,
77,-77,90,locationcue,1,37,101,43,,,,,,,,,,,session,1670.081758600194,132.0,6.0,2.0,72.0,0.02438922240000001,6,1.138962399912998,1.2579292999580503,,4,0.8348668999969959,0.9686362999491394,7,0.31661970005370677,0.44841419998556376,,69.0,66.0,1905_1145,60.0,
77,77,90,nocue,1,38,102,51,,,,,,,,,,,session,1679.1710489001125,150.0,6.0,2.0,72.0,0.02438922240000001,6,0.376493499847129,0.5032070998568088,,5,0.8717217999510467,1.0500864000059664,7,0.6014227999839932,0.7497880000155419,,48.0,48.0,1905_1145,60.0,
-77,77,45,nocue,1,39,103,54,,,,,,,,,,,session,1687.934039400192,96.0,6.0,2.0,72.0,0.02438922240000001,6,1.1612575999461114,1.2935142000205815,,2,1.011398899834603,1.1620969998184592,1,0.2850124998949468,0.45198799995705485,,66.0,60.0,1905_1145,60.0,
-77,-77,90,centralcue,1,40,104,31,,,,,,,,,,,session,1696.5024518000428,138.0,6.0,2.0,72.0,0.02438922240000001,6,0.33721350017003715,0.48452410008758307,,3,0.29663849994540215,0.4965575998649001,1,0.2862720999401063,0.4781509998720139,,54.0,69.0,1905_1145,60.0,
-77,-77,45,centralcue,1,41,105,30,,,,,,,,,,,session,1704.2672970001586,120.0,6.0,2.0,72.0,0.02438922240000001,6,0.8601250001229346,1.060717900050804,,3,0.3096433999016881,0.49209209997206926,1,0.8369261000771075,1.0044652000069618,,51.0,63.0,1905_1145,60.0,
-77,-77,45,allcue,1,42,106,14,,,,,,,,,,,session,1713.1988050001673,138.0,6.0,2.0,72.0,0.02438922240000001,7,1.2827076001558453,1.4167824001051486,,3,0.5975855998694897,0.7672005000058562,6,0.6867490999866277,0.7870251999702305,,66.0,63.0,1905_1145,60.0,
77,-77,90,centralcue,1,43,107,27,,,,,,,,,,,session,1722.5745867001824,114.0,6.0,2.0,72.0,0.02438922240000001,6,0.45925569999963045,0.5973370000720024,,4,0.4215985001064837,0.601895600091666,6,0.8201699999626726,0.9029820000287145,,66.0,57.0,1905_1145,60.0,
77,77,90,allcue,1,44,108,3,,,,,,,,,,,session,1730.6018036000896,120.0,6.0,2.0,72.0,0.02438922240000001,6,1.2839003999251872,1.4009895999915898,,5,0.7542451999615878,0.9539429999422282,6,0.3347688999492675,0.4518937999382615,,51.0,72.0,1905_1145,60.0,
-77,-77,45,locationcue,1,45,109,46,,,,,,,,,,,session,1739.4185703999829,120.0,6.0,2.0,72.0,0.02438922240000001,7,1.1162608000449836,1.249822200043127,,3,1.0950479998718947,1.2956493999809027,6,1.5051837000064552,1.5935695001389831,,54.0,57.0,1905_1145,60.0,
77,-77,0,centralcue,1,46,110,25,,,,,,,,,,,session,1749.3830166000407,120.0,6.0,2.0,72.0,0.02438922240000001,0,0.33842440019361675,0.5549565001856536,,4,0.9740681999828666,1.1728346000891179,6,0.31889900006353855,0.4181550999637693,,72.0,54.0,1905_1145,60.0,
-77,-77,0,nocue,1,47,111,61,,,,,,,,,,,session,1757.9003556000534,138.0,6.0,2.0,72.0,0.02438922240000001,0,0.42432780005037785,0.6078269998542964,,3,1.4663537999149412,1.5659362999722362,1,0.28369980002753437,0.4173411000519991,,63.0,54.0,1905_1145,60.0,
-77,-77,0,nocue,1,47,111,61,,,materials/instructions\12_break.png,1766.6679624000099,1780.0952620999888,0,13.3251859000884,13.425099499989301,0.02300609997473657,13.43622209993191,,,,,,,,,,,,,,,,,,,,,1905_1145,60.0,
-77,-77,90,nocue,1,48,112,63,,,,,,,,,,,session,1780.109962800052,138.0,6.0,2.0,72.0,0.02438922240000001,6,0.4615605999715626,0.6281137999612838,,3,0.670953799970448,0.8374452001880854,6,0.4504335999954492,0.551226600073278,,57.0,63.0,1905_1145,60.0,
77,77,-45,centralcue,1,49,113,16,,,,,,,,,,,session,1788.3378008999862,144.0,6.0,2.0,72.0,0.02438922240000001,1,1.563550400082022,1.7593817999586463,,5,0.9104743998032063,1.0287840999662876,6,0.9529594997875392,1.034165499964729,,51.0,60.0,1905_1145,60.0,
-77,77,0,centralcue,1,50,114,21,,,,,,,,,,,session,1798.332041400019,114.0,6.0,2.0,72.0,0.02438922240000001,6,0.11128610000014305,0.2291137999854982,,5,2.6955198999494314,2.880704900017008,0,0.13755639991723,0.2378569000866264,,69.0,69.0,1905_1145,60.0,
77,-77,45,nocue,1,51,115,58,,,,,,,,,,,session,1807.8380090000574,114.0,6.0,2.0,72.0,0.02438922240000001,7,1.2103454999160022,1.4100297999102622,,4,0.3648918999824673,0.4147073000203818,1,0.3098820000886917,0.4435187999624759,,51.0,54.0,1905_1145,60.0,
77,-77,-45,allcue,1,52,116,8,,,,,,,,,,,session,1815.7026007999666,150.0,6.0,2.0,72.0,0.02438922240000001,1,0.9124763000290841,1.1119341000448912,,4,0.3279430998954922,0.4945733000058681,6,0.2987569998949766,0.3963738998863846,,72.0,48.0,1905_1145,60.0,
-77,-77,-45,locationcue,1,53,117,44,,,,,,,,,,,session,1824.464379800018,150.0,6.0,2.0,72.0,0.02438922240000001,1,1.0942708000075072,1.261638999916613,,3,0.32972060004249215,0.4967215000651777,6,0.21834419993683696,0.36668169987387955,,54.0,54.0,1905_1145,60.0,
-77,77,-45,nocue,1,54,118,52,,,,,,,,,,,session,1832.8396309001837,132.0,6.0,2.0,72.0,0.02438922240000001,1,0.9451371999457479,1.1634653001092374,,2,0.6696374998427927,0.8392767000477761,1,0.31721609993837774,0.4502987000159919,,51.0,66.0,1905_1145,60.0,
77,77,0,allcue,1,55,119,1,,,,,,,,,,,session,1841.4659542001318,132.0,6.0,2.0,72.0,0.02438922240000001,0,0.36468810006044805,0.5818072999827564,,5,0.9793396999593824,1.129941799910739,1,0.2868132998701185,0.38439779984764755,,54.0,72.0,1905_1145,60.0,
-77,77,-45,centralcue,1,56,120,20,,,,,,,,,,,session,1849.8172433001455,114.0,6.0,2.0,72.0,0.02438922240000001,1,0.4981825998984277,0.6476812998298556,,2,0.4309207999613136,0.6136433999054134,6,0.8112610999960452,0.9115446999203414,,72.0,51.0,1905_1145,60.0,
-77,-77,0,allcue,1,57,121,13,,,,,,,,,,,session,1857.8747394001111,120.0,6.0,2.0,72.0,0.02438922240000001,0,0.45887949992902577,0.6931141999084502,,3,0.8635708000510931,1.0744480001740158,6,1.4359478000551462,1.6197186999488622,,66.0,72.0,1905_1145,60.0,
-77,77,-45,allcue,1,58,122,4,,,,,,,,,,,session,1868.1164569000248,126.0,6.0,2.0,72.0,0.02438922240000001,1,0.3900377999525517,0.6090777998324484,,2,0.32272469997406006,0.5231855001766235,6,0.3997984000016004,0.583484899951145,,60.0,54.0,1905_1145,60.0,
77,77,45,locationcue,1,59,123,34,,,,,,,,,,,session,1875.7903361001518,132.0,6.0,2.0,72.0,0.02438922240000001,7,0.9800044998992234,1.1207540999166667,,5,0.484696899773553,0.6112455998081714,7,0.35269280010834336,0.5201350999996066,,57.0,51.0,1905_1145,60.0,
77,-77,-45,centralcue,1,60,124,24,,,,,,,,,,,session,1884.0696725000162,132.0,6.0,2.0,72.0,0.02438922240000001,1,0.8472136000636965,0.9975737000349909,,4,0.4292185001540929,0.6288056001067162,6,0.2983450999017805,0.43189849983900785,,72.0,57.0,1905_1145,60.0,
77,-77,0,locationcue,1,61,125,41,,,,,,,,,,,session,1892.4513679000083,132.0,6.0,2.0,72.0,0.02438922240000001,0,0.3257313999347389,0.5593246999196708,,4,1.1044042001012713,1.2872274999972433,7,0.06337449979037046,0.2152019999921322,,57.0,69.0,1905_1145,60.0,
-77,-77,90,locationcue,1,62,126,47,,,,,,,,,,,session,1900.7588967001066,132.0,6.0,2.0,72.0,0.02438922240000001,6,0.3279422998894006,0.5138177999760956,,3,0.8226093000266701,1.034925599815324,6,0.4005102999508381,0.5167984999716282,,69.0,69.0,1905_1145,60.0,
77,-77,45,locationcue,1,63,127,42,,,,,,,,,,,session,1909.766415100079,108.0,6.0,2.0,72.0,0.02438922240000001,7,0.4635449000634253,0.6482752000447363,,4,1.1778096000198275,1.3775037999730557,6,0.604233699850738,0.6876107999123633,,69.0,60.0,1905_1145,60.0,
77,-77,45,locationcue,1,63,127,42,,,materials/instructions\12_break.png,1918.4032387000043,1920.3362487000413,0,1.783553299959749,1.9312990000471473,0.019103399943560362,1.9398147999309003,,,,,,,,,,,,,,,,,,,,,1905_1145,60.0,
77,-77,45,allcue,2,0,128,10,,,,,,,,,,,session,1920.3529750001617,132.0,6.0,2.0,72.0,0.02438922240000001,7,0.6017752999905497,0.7878010999411345,,4,0.1592729000840336,0.3428362999111414,6,0.32955430005677044,0.39589200005866587,,48.0,60.0,1905_1145,60.0,
77,77,-45,locationcue,2,1,129,32,,,,,,,,,,,session,1927.8648031000048,108.0,6.0,2.0,72.0,0.02438922240000001,1,0.5980183000210673,0.7650885998737067,,5,1.0137568998616189,1.1804897000547498,7,0.28341599996201694,0.46900889999233186,,48.0,72.0,1905_1145,60.0,
-77,77,0,centralcue,2,2,130,21,,,,,,,,,,,session,1936.0355635001324,108.0,6.0,2.0,72.0,0.02438922240000001,0,0.31297129997983575,0.4814669000916183,,2,0.8272144999355078,1.028678499860689,6,0.2867906999308616,0.41929639992304146,,54.0,57.0,1905_1145,60.0,
77,77,45,nocue,2,3,131,50,,,,,,,,,,,session,1943.5571161999833,108.0,6.0,2.0,72.0,0.02438922240000001,7,0.8889613000210375,1.0677631001453847,,5,0.48392140003852546,0.6705069001764059,1,0.4183180001564324,0.5183765001129359,,69.0,72.0,1905_1145,60.0,
-77,-77,45,locationcue,2,4,132,46,,,,,,,,,,,session,1951.9366133001167,138.0,6.0,2.0,72.0,0.02438922240000001,7,0.4409692999906838,0.6242164999712259,,3,1.0964945000596344,1.3462745998986065,1,0.29975289991125464,0.4666950998362154,,57.0,48.0,1905_1145,60.0,
77,-77,-45,nocue,2,5,133,56,,,,,,,,,,,session,1960.3699004000518,114.0,6.0,2.0,72.0,0.02438922240000001,1,1.029456399846822,1.181201099883765,,4,0.46318119997158647,0.6289922001305968,1,0.2365061000455171,0.3694215000141412,,63.0,72.0,1905_1145,60.0,
-77,-77,90,allcue,2,6,134,15,,,,,,,,,,,session,1968.6442829000298,144.0,6.0,2.0,72.0,0.02438922240000001,6,0.3377822001930326,0.48788810009136796,,3,0.2597199999727309,0.4748293000739068,1,0.3051529999356717,0.4220904998946935,,48.0,63.0,1905_1145,60.0,
77,77,45,locationcue,2,7,135,34,,,,,,,,,,,session,1976.8539935001172,114.0,6.0,2.0,72.0,0.02438922240000001,7,0.9640603999141604,1.1314360999967903,,5,1.2092291999142617,1.3762821999844164,6,0.3706630999222398,0.4710011000279337,,63.0,69.0,1905_1145,60.0,
77,77,90,locationcue,2,8,136,35,,,,,,,,,,,session,1985.8725032999646,114.0,6.0,2.0,72.0,0.02438922240000001,6,0.3455717999022454,0.48714209999889135,,5,0.3319028001278639,0.5141652000602335,6,0.28048110008239746,0.3935086999554187,,63.0,48.0,1905_1145,60.0,
77,77,-45,allcue,2,9,137,0,,,,,,,,,,,session,1992.9665280000772,120.0,6.0,2.0,72.0,0.02438922240000001,1,0.5319279001560062,0.677966000046581,,5,1.1483227999415249,1.282322800019756,6,0.3529848998878151,0.47191670001484454,,60.0,54.0,1905_1145,60.0,
-77,77,-45,centralcue,2,10,138,20,,,,,,,,,,,session,2001.4211496000644,114.0,6.0,2.0,72.0,0.02438922240000001,1,0.9348337000701576,1.1012746000196785,,2,0.355950600001961,0.5235496000386775,6,0.8353802000638098,0.9687417999375612,,72.0,51.0,1905_1145,60.0,
77,77,-45,nocue,2,11,139,48,,,,,,,,,,,session,2009.8918084001634,138.0,6.0,2.0,72.0,0.02438922240000001,1,0.4325744998641312,0.6268434999510646,,5,0.7251073000952601,0.9086105001624674,6,0.26715790014714,0.41791180009022355,,63.0,66.0,1905_1145,60.0,
77,-77,45,centralcue,2,12,140,26,,,,,,,,,,,session,2018.4168660000432,150.0,6.0,2.0,72.0,0.02438922240000001,7,0.4152892001438886,0.5654365001246333,,4,0.44984289980493486,0.6329598999582231,7,0.28495889995247126,0.43492030003108084,,60.0,51.0,1905_1145,60.0,
77,-77,-45,centralcue,2,13,141,24,,,,,,,,,,,session,2026.336139000021,132.0,6.0,2.0,72.0,0.02438922240000001,1,0.9972814000211656,1.1316133998334408,,4,0.6585401999764144,0.8285832998808473,6,0.08351329993456602,0.21694019995629787,,72.0,69.0,1905_1145,60.0,
-77,77,45,locationcue,2,14,142,38,,,,,,,,,,,session,2035.02695960016,114.0,6.0,2.0,72.0,0.02438922240000001,7,0.572516500018537,0.7547961000818759,,2,0.6583396000787616,0.8722710001748055,6,0.28607930010184646,0.40308080008253455,,51.0,66.0,1905_1145,60.0,
77,77,0,centralcue,2,15,143,17,,,,,,,,,,,session,2043.4029018001165,132.0,6.0,2.0,72.0,0.02438922240000001,0,0.3157315000426024,0.5001040999777615,,5,2.648692699847743,2.815040599787608,7,0.2843681999947876,0.43426140001975,,51.0,54.0,1905_1145,60.0,
77,77,0,centralcue,2,15,143,17,,,materials/instructions\12_break.png,2053.065881300019,2147.2838310000952,0,93.99892930011265,94.21572210011072,0.025915800128132105,94.22291829995811,,,,,,,,,,,,,,,,,,,,,1905_1145,60.0,
77,77,0,nocue,2,16,144,49,,,,,,,,,,,session,2147.2990688001737,114.0,6.0,2.0,72.0,0.02438922240000001,0,0.3791006999090314,0.6303167999722064,,5,0.849330099998042,1.0819525001570582,1,0.2856538000050932,0.45242180000059307,,66.0,51.0,1905_1145,60.0,
-77,-77,90,centralcue,2,17,145,31,,,,,,,,,,,session,2155.586380700115,96.0,6.0,2.0,72.0,0.02438922240000001,6,0.379234200110659,0.5621879000682384,,3,0.4122200000565499,0.662139399908483,6,0.2827137999702245,0.4004184000659734,,72.0,69.0,1905_1145,60.0,
-77,-77,45,centralcue,2,18,146,30,,,,,,,,,,,session,2163.1255422001705,108.0,6.0,2.0,72.0,0.02438922240000001,7,0.9289142999332398,1.171265099896118,,3,0.0925673998426646,0.30994839989580214,6,0.03372829989530146,0.18132740003056824,,48.0,63.0,1905_1145,60.0,
-77,77,90,locationcue,2,19,147,39,,,,,,,,,,,session,2170.383078600047,138.0,6.0,2.0,72.0,0.02438922240000001,6,0.3299153000116348,0.563867999939248,,2,0.9821055000647902,1.1818499001674354,7,0.2441529999487102,0.46049389988183975,,69.0,66.0,1905_1145,60.0,
-77,77,-45,allcue,2,20,148,4,,,,,,,,,,,session,2179.137936100131,102.0,6.0,2.0,72.0,0.02438922240000001,1,0.5956619000062346,0.7633193000219762,,2,0.7662299000658095,0.9497376000508666,6,0.27110030013136566,0.43790400004945695,,48.0,51.0,1905_1145,60.0,
-77,77,90,allcue,2,21,149,7,,,,,,,,,,,session,2186.576421200065,138.0,6.0,2.0,72.0,0.02438922240000001,6,0.47412759996950626,0.6626585000194609,,2,0.3912108999211341,0.6908842998091131,6,0.2224624000955373,0.3684764001518488,,48.0,66.0,1905_1145,60.0,
77,-77,90,allcue,2,22,150,11,,,,,,,,,,,session,2194.6173527000938,150.0,6.0,2.0,72.0,0.02438922240000001,6,0.3122263001278043,0.4621449001133442,,4,0.6438777998555452,0.8436441998928785,7,0.7047739999834448,0.8875176999717951,,51.0,57.0,1905_1145,60.0,
77,-77,0,locationcue,2,23,151,41,,,,,,,,,,,session,2203.056165000191,114.0,6.0,2.0,72.0,0.02438922240000001,0,0.30028010020032525,0.48350180010311306,,4,0.445487700169906,0.614409200148657,7,0.28665130003355443,0.4535978001076728,,63.0,57.0,1905_1145,60.0,
77,77,90,allcue,2,24,152,3,,,,,,,,,,,session,2210.4453466001432,150.0,6.0,2.0,72.0,0.02438922240000001,6,0.27608300000429153,0.42664800002239645,,5,0.5393187999725342,0.7348905999679118,7,0.033743200125172734,0.468220500042662,,57.0,51.0,1905_1145,60.0,
77,77,0,locationcue,2,25,153,33,,,,,,,,,,,session,2218.786315300036,114.0,6.0,2.0,72.0,0.02438922240000001,1,0.24719409993849695,0.4278708999045193,,5,0.35961719998158514,0.5590689000673592,6,0.33140660007484257,0.46523299999535084,,60.0,57.0,1905_1145,60.0,
-77,77,-45,nocue,2,26,154,52,,,,,,,,,,,session,2226.0393332999665,138.0,6.0,2.0,72.0,0.02438922240000001,1,0.42531799990683794,0.6091771998908371,,2,0.6352942001540214,0.8342035000678152,6,0.23615009989589453,0.3765608000103384,,63.0,60.0,1905_1145,60.0,
77,-77,45,nocue,2,27,155,58,,,,,,,,,,,session,2234.1382883000188,108.0,6.0,2.0,72.0,0.02438922240000001,7,0.7642756998538971,0.9483053998555988,,4,0.22217630012892187,0.38645080011337996,6,0.16805730015039444,0.30333170015364885,,51.0,60.0,1905_1145,60.0,
77,-77,-45,allcue,2,28,156,8,,,,,,,,,,,session,2241.9902655000333,102.0,6.0,2.0,72.0,0.02438922240000001,1,0.863075700122863,1.0291130999103189,,4,0.25027410010807216,0.4341792999766767,6,0.20346200000494719,0.40386319998651743,,72.0,63.0,1905_1145,60.0,
-77,77,90,centralcue,2,29,157,23,,,,,,,,,,,session,2249.7569565000013,96.0,6.0,2.0,72.0,0.02438922240000001,6,0.23886870010755956,0.4374603000469506,,2,0.5215136001352221,0.6873133000917733,6,0.04885910009033978,0.18345640017651021,,57.0,54.0,1905_1145,60.0,
-77,-77,-45,nocue,2,30,158,60,,,,,,,,,,,session,2256.4464241999667,114.0,6.0,2.0,72.0,0.02438922240000001,1,0.6219611000269651,0.8393576999660581,,3,0.3788540998939425,0.5779208999592811,6,0.2572388001717627,0.4410689000505954,,54.0,54.0,1905_1145,60.0,
-77,77,0,allcue,2,31,159,5,,,,,,,,,,,session,2264.470334300073,114.0,6.0,2.0,72.0,0.02438922240000001,0,0.042958399979397655,0.3107181000523269,,2,0.3303829999640584,0.4999939000699669,6,0.38650750019587576,0.5182055002078414,,69.0,48.0,1905_1145,60.0,
-77,77,0,allcue,2,31,159,5,,,materials/instructions\12_break.png,2271.6163477001246,2273.0062326001935,0,1.1887395000085235,1.3873368999920785,0.02555930009111762,1.3949438000563532,,,,,,,,,,,,,,,,,,,,,1905_1145,60.0,
77,-77,45,locationcue,2,32,160,42,,,,,,,,,,,session,2273.0208636000752,138.0,6.0,2.0,72.0,0.02438922240000001,7,0.49485170003026724,0.662658300017938,,4,0.046981099992990494,0.2642453000880778,6,0.48819039994850755,0.11989689990878105,,48.0,63.0,1905_1145,60.0,
-77,77,45,allcue,2,33,161,6,,,,,,,,,,,session,2280.558795799967,126.0,6.0,2.0,72.0,0.02438922240000001,7,1.3148007998242974,1.464705599937588,,2,0.2868380998261273,0.5186364999972284,6,0.1858121999539435,0.385115799959749,,51.0,69.0,1905_1145,60.0,
-77,-77,0,locationcue,2,34,162,45,,,,,,,,,,,session,2289.0562124999706,114.0,6.0,2.0,72.0,0.02438922240000001,1,0.4650042001157999,0.6830744000617415,,3,0.282013300107792,0.47663270006887615,1,0.2850061999633908,0.41907049994915724,,57.0,63.0,1905_1145,60.0,
-77,-77,90,locationcue,2,35,163,47,,,,,,,,,,,session,2296.4762280001305,108.0,6.0,2.0,72.0,0.02438922240000001,6,0.22775580012239516,0.35265989997424185,,3,0.8183356998488307,1.0614780997857451,7,1.2047818000428379,1.338108800118789,,57.0,60.0,1905_1145,60.0,
-77,-77,-45,locationcue,2,36,164,44,,,,,,,,,,,session,2304.956796400016,120.0,6.0,2.0,72.0,0.02438922240000001,7,0.8470377000048757,1.0147029000800103,,3,0.6360872001387179,0.8372631999664009,1,0.07081309985369444,0.22226889990270138,,51.0,57.0,1905_1145,60.0,
77,77,45,allcue,2,37,165,2,,,,,,,,,,,session,2312.771954300115,150.0,6.0,2.0,72.0,0.02438922240000001,7,1.0999776001553982,1.2697717000264674,,5,1.4125200000125915,1.5958231000695378,6,0.35407510004006326,0.01373869995586574,,51.0,54.0,1905_1145,60.0,
-77,-77,90,nocue,2,38,166,63,,,,,,,,,,,session,2322.19856290007,138.0,6.0,2.0,72.0,0.02438922240000001,6,0.3884926999453455,0.5267437999136746,,3,0.32567379996180534,0.5252773000393063,6,1.0044925999827683,0.1206555999815464,,48.0,63.0,1905_1145,60.0,
-77,-77,45,nocue,2,39,167,62,,,,,,,,,,,session,2330.9256558001507,102.0,6.0,2.0,72.0,0.02438922240000001,7,0.7105929001700133,0.9451836000662297,,3,0.3131677999626845,0.5324892001226544,1,0.6667166999541223,0.8521753000095487,,57.0,66.0,1905_1145,60.0,
77,-77,0,centralcue,2,40,168,25,,,,,,,,,,,session,2338.9602576000616,144.0,6.0,2.0,72.0,0.02438922240000001,6,1.829880699981004,1.9132811001036316,,4,1.3054428999312222,1.4729512999765575,1,0.6039996999315917,0.7173095000907779,,69.0,72.0,1905_1145,60.0,
-77,77,0,nocue,2,41,169,53,,,,,,,,,,,session,2349.7533909999765,126.0,6.0,2.0,72.0,0.02438922240000001,0,0.32879730011336505,0.5298095000907779,,2,0.8745536000933498,1.0248197000473738,6,2.4837519999127835,2.583723600022495,,51.0,60.0,1905_1145,60.0,
77,-77,90,locationcue,2,42,170,43,,,,,,,,,,,session,2359.759997999994,132.0,6.0,2.0,72.0,0.02438922240000001,6,0.40931559982709587,0.5946243999060243,,4,0.6991989000234753,0.8664380998816341,1,0.29788989992812276,0.4240402998402715,,54.0,54.0,1905_1145,60.0,
77,-77,0,allcue,2,43,171,9,,,,,,,,,,,session,2367.5831208999734,126.0,6.0,2.0,72.0,0.02438922240000001,0,0.3157446999102831,0.5012132998090237,,4,0.2420525997877121,0.4429640998132527,6,1.5195903000421822,1.6375567999202758,,48.0,60.0,1905_1145,60.0,
-77,-77,-45,allcue,2,44,172,12,,,,,,,,,,,session,2376.3755753000733,120.0,6.0,2.0,72.0,0.02438922240000001,1,0.6609813999384642,0.8617781000211835,,3,0.36258050007745624,0.5665154000744224,6,0.4945914999116212,0.595295500010252,,63.0,51.0,1905_1145,60.0,
-77,-77,0,nocue,2,45,173,61,,,,,,,,,,,session,2384.2428034001496,150.0,6.0,2.0,72.0,0.02438922240000001,0,0.3085157999303192,0.507994299987331,,3,0.3962115999311209,0.6201455998234451,1,0.2682830998674035,0.43481220002286136,,60.0,54.0,1905_1145,60.0,
77,77,90,centralcue,2,46,174,19,,,,,,,,,,,session,2392.1386553000193,114.0,6.0,2.0,72.0,0.02438922240000001,6,0.3291860001627356,0.44971149996854365,,5,0.9302519999910146,1.1962910001166165,6,3.210498800035566,3.3604163001291454,,57.0,63.0,1905_1145,60.0,
77,77,-45,centralcue,2,47,175,16,,,,,,,,,,,session,2402.9921950001735,138.0,6.0,2.0,72.0,0.02438922240000001,1,0.92674530018121,1.043737200088799,,5,0.3134628999978304,0.4650031002238393,6,0.34101920016109943,0.4814630001783371,,48.0,72.0,1905_1145,60.0,
77,77,-45,centralcue,2,47,175,16,,,materials/instructions\12_break.png,2411.2537953001447,2430.844270200003,0,19.43859319994226,19.588614499894902,0.011570800095796585,19.59609519992955,,,,,,,,,,,,,,,,,,,,,1905_1145,60.0,
-77,-77,-45,centralcue,2,48,176,28,,,,,,,,,,,session,2430.8598691001534,144.0,6.0,2.0,72.0,0.02438922240000001,1,1.07562160002999,1.2561248000711203,,3,0.3280629999935627,0.49744229996576905,6,0.19335100008174777,0.3607560000382364,,63.0,69.0,1905_1145,60.0,
-77,-77,45,allcue,2,49,177,14,,,,,,,,,,,session,2439.9222211001907,114.0,6.0,2.0,72.0,0.02438922240000001,7,0.4334499998949468,0.6323851000051945,,3,0.3126128001604229,0.4796530001331121,6,0.2694055000320077,0.3865257001016289,,63.0,57.0,1905_1145,60.0,
77,77,45,centralcue,2,50,178,18,,,,,,,,,,,session,2447.260533499997,120.0,6.0,2.0,72.0,0.02438922240000001,7,1.052978300023824,1.2033022998366505,,5,0.813726200023666,0.9968513001222163,7,0.3855649000033736,0.5694275998976082,,51.0,72.0,1905_1145,60.0,
77,-77,90,centralcue,2,51,179,27,,,,,,,,,,,session,2456.0409069000743,96.0,6.0,2.0,72.0,0.02438922240000001,6,0.3580432999879122,0.47534119989722967,,4,0.37312169978395104,0.5559358999598771,6,0.3122727000154555,0.3928057998418808,,51.0,51.0,1905_1145,60.0,
-77,77,-45,locationcue,2,52,180,36,,,,,,,,,,,session,2463.1044477999676,114.0,6.0,2.0,72.0,0.02438922240000001,1,0.9443326999899,1.1442643001209944,,2,0.4206520998850465,0.5868440999183804,6,0.3011943001765758,0.43667350010946393,,60.0,48.0,1905_1145,60.0,
77,77,0,allcue,2,53,181,1,,,,,,,,,,,session,2470.928746700054,126.0,6.0,2.0,72.0,0.02438922240000001,0,0.3990716999396682,0.648350200150162,,5,0.6790956000331789,0.8296512998640537,6,0.27909439988434315,0.45925830001942813,,51.0,48.0,1905_1145,60.0,
77,-77,90,nocue,2,54,182,59,,,,,,,,,,,session,2478.572391600115,126.0,6.0,2.0,72.0,0.02438922240000001,6,0.4795516999438405,0.6292000999674201,,4,0.27069609984755516,0.45439669978804886,6,0.603895700071007,0.7207132000476122,,63.0,66.0,1905_1145,60.0,
-77,77,45,nocue,2,55,183,54,,,,,,,,,,,session,2486.838676000014,132.0,6.0,2.0,72.0,0.02438922240000001,7,1.0687371999956667,1.20283619989641,,2,0.6482875000219792,0.8318592999130487,1,0.015592999989166856,0.013689600164070725,,54.0,69.0,1905_1145,60.0,
-77,-77,0,allcue,2,56,184,13,,,,,,,,,,,session,2495.0927281000186,96.0,6.0,2.0,72.0,0.02438922240000001,0,0.3172129997983575,0.5393890999257565,,3,0.44871039991267025,0.6489015000406653,1,0.32007859996519983,0.44985179998911917,,60.0,54.0,1905_1145,60.0,
77,-77,0,nocue,2,57,185,57,,,,,,,,,,,session,2502.2041958000045,132.0,6.0,2.0,72.0,0.02438922240000001,0,0.3619257998652756,0.5122406999580562,,4,0.39286880008876324,0.5450118998996913,6,0.7563425998669118,0.870949300006032,,72.0,54.0,1905_1145,60.0,
-77,77,45,centralcue,2,58,186,22,,,,,,,,,,,session,2510.390014300123,150.0,6.0,2.0,72.0,0.02438922240000001,7,1.6324372000526637,1.7995239000301808,,2,0.5464218999259174,0.7433140000794083,1,0.2171485999133438,0.30125569994561374,,48.0,48.0,1905_1145,60.0,
77,-77,-45,locationcue,2,59,187,40,,,,,,,,,,,session,2519.298021099996,120.0,6.0,2.0,72.0,0.02438922240000001,7,1.1972371998708695,1.3476595000829548,,4,1.2100571000482887,1.410094000166282,6,0.20216630003415048,0.33788329991512,,69.0,57.0,1905_1145,60.0,
-77,77,90,nocue,2,60,188,55,,,,,,,,,,,session,2528.841594700003,120.0,6.0,2.0,72.0,0.02438922240000001,6,0.3181220998521894,0.4661311998497695,,2,0.5966624999418855,0.8137486998457462,1,0.13687859987840056,0.3040622000116855,,69.0,69.0,1905_1145,60.0,
-77,-77,0,centralcue,2,61,189,29,,,,,,,,,,,session,2536.677243300015,126.0,6.0,2.0,72.0,0.02438922240000001,0,0.30357879982329905,0.48729299986734986,,3,0.695968700107187,0.9128144001588225,1,0.27721819980069995,0.45173349999822676,,57.0,48.0,1905_1145,60.0,
77,77,90,nocue,2,62,190,51,,,,,,,,,,,session,2544.3398079001345,132.0,6.0,2.0,72.0,0.02438922240000001,6,0.8645236000884324,1.0165436000097543,,5,0.5460948999971151,0.6977336998097599,1,0.3052916000597179,0.40519429999403656,,57.0,60.0,1905_1145,60.0,
-77,77,0,locationcue,2,63,191,37,,,,,,,,,,,session,2552.872822500067,96.0,6.0,2.0,72.0,0.02438922240000001,0,0.3125461000017822,0.5481726999860257,,2,0.9491938999854028,1.1017046000342816,6,0.353798900032416,0.5376649999525398,,66.0,54.0,1905_1145,60.0,
-77,77,0,locationcue,2,63,191,37,,,materials/instructions\12_break.png,2560.6384874000214,2562.061480600154,0,1.2195021999068558,1.4200657000765204,0.024096500128507614,1.4271853000391275,,,,,,,,,,,,,,,,,,,,,1905_1145,60.0,
-77,77,-45,nocue,3,0,192,52,,,,,,,,,,,session,2562.075454500038,138.0,6.0,2.0,72.0,0.02438922240000001,7,0.5748882999178022,0.6416179998777807,,2,0.4228058001026511,0.6008284999988973,6,0.4572968001011759,0.5384705001488328,,72.0,54.0,1905_1145,60.0,
-77,77,0,nocue,3,1,193,53,,,,,,,,,,,session,2570.3914126001764,132.0,6.0,2.0,72.0,0.02438922240000001,0,0.3842602998483926,0.6012819998431951,,2,0.7776180000510067,0.9442485999315977,6,0.3065245000179857,0.43956499989144504,,60.0,60.0,1905_1145,60.0,
-77,-77,-45,locationcue,3,2,194,44,,,,,,,,,,,session,2578.524890600005,120.0,6.0,2.0,72.0,0.02438922240000001,1,0.4835606999695301,0.6172829000279307,,3,1.2787375000771135,1.446756700053811,6,0.38795939995907247,0.472451200010255,,63.0,51.0,1905_1145,60.0,
-77,77,0,locationcue,3,3,195,37,,,,,,,,,,,session,2586.9014130001888,96.0,6.0,2.0,72.0,0.02438922240000001,0,0.6949658000376076,0.8613819000311196,,2,0.28681419999338686,0.4216221000533551,6,3.256342199863866,3.369368299841881,,63.0,60.0,1905_1145,60.0,
-77,-77,-45,centralcue,3,4,196,28,,,,,,,,,,,session,2597.6558086001314,102.0,6.0,2.0,72.0,0.02438922240000001,1,1.2330990000627935,1.3994490001350641,,3,0.4346314000431448,0.6183052000124007,1,0.3509762000758201,0.500931299990043,,69.0,48.0,1905_1145,60.0,
77,-77,90,centralcue,3,5,197,27,,,,,,,,,,,session,2605.7816451999824,102.0,6.0,2.0,72.0,0.02438922240000001,6,0.3246176999527961,0.47543890005908906,,4,0.42054540012031794,0.5950857000425458,1,0.35006510000675917,0.47948739980347455,,66.0,48.0,1905_1145,60.0,
77,77,-45,locationcue,3,6,198,32,,,,,,,,,,,session,2612.870140100131,120.0,6.0,2.0,72.0,0.02438922240000001,1,1.0096077001653612,1.1431504001375288,,5,1.078828199999407,1.3278611998539418,6,0.23685150011442602,0.3676513999234885,,69.0,72.0,1905_1145,60.0,
77,77,90,allcue,3,7,199,3,,,,,,,,,,,session,2622.00772470003,102.0,6.0,2.0,72.0,0.02438922240000001,6,0.2986093999352306,0.46287259995006025,,5,0.5786451001185924,0.21229960001073778,6,1.5585462001617998,1.6751172000076622,,66.0,72.0,1905_1145,60.0,
-77,77,-45,locationcue,3,8,200,36,,,,,,,,,,,session,2630.6654805999715,102.0,6.0,2.0,72.0,0.02438922240000001,1,0.7805904999841005,0.9142149998806417,,2,0.6604962998535484,0.7944378999527544,6,0.27125210012309253,0.4374121001455933,,48.0,57.0,1905_1145,60.0,
77,-77,45,locationcue,3,9,201,42,,,,,,,,,,,session,2638.6567826000974,132.0,6.0,2.0,72.0,0.02438922240000001,7,1.248449700186029,1.3811510000377893,,4,0.34538300009444356,0.5281867000740021,6,1.1604834001045674,1.2603535999078304,,51.0,51.0,1905_1145,60.0,
-77,-77,90,locationcue,3,10,202,47,,,,,,,,,,,session,2647.6628028000705,132.0,6.0,2.0,72.0,0.02438922240000001,6,1.1026206000242382,1.1423710999079049,,3,1.1489579998888075,1.349289400037378,6,1.1995363000314683,1.2660757000558078,,54.0,72.0,1905_1145,60.0,
77,-77,90,allcue,3,11,203,11,,,,,,,,,,,session,2657.6886462999973,132.0,6.0,2.0,72.0,0.02438922240000001,6,0.3807000999804586,0.4826797000132501,,4,0.19770519994199276,0.3975921000819653,6,0.2865347000770271,0.4198388000950217,,72.0,57.0,1905_1145,60.0,
-77,-77,0,nocue,3,12,204,61,,,,,,,,,,,session,2665.2928795001935,114.0,6.0,2.0,72.0,0.02438922240000001,0,0.4044934001285583,0.6199723000172526,,3,0.31111170002259314,0.4966778000816703,6,0.32195970020256937,0.438501900061965,,63.0,51.0,1905_1145,60.0,
-77,77,45,locationcue,3,13,205,38,,,,,,,,,,,session,2672.5827540999744,126.0,6.0,2.0,72.0,0.02438922240000001,7,0.9749367998447269,1.1248582999687642,,2,0.9241985999979079,1.077433600090444,1,0.2761188999284059,0.3930573998950422,,57.0,66.0,1905_1145,60.0,
-77,-77,-45,nocue,3,14,206,60,,,,,,,,,,,session,2681.3389445000794,114.0,6.0,2.0,72.0,0.02438922240000001,1,0.9270856999792159,1.110613299999386,,3,0.32503850013017654,0.5590838000643998,6,0.2863495999481529,0.402805499965325,,72.0,48.0,1905_1145,60.0,
77,-77,90,locationcue,3,15,207,43,,,,,,,,,,,session,2689.2459613999818,138.0,6.0,2.0,72.0,0.02438922240000001,6,0.29460650007240474,0.4778752001002431,,4,0.3533269001636654,0.5364873001817614,1,0.3391487000044435,0.48910939996130764,,72.0,60.0,1905_1145,60.0,
77,-77,90,locationcue,3,15,207,43,,,materials/instructions\12_break.png,2697.226659800159,2729.8222986001056,0,32.460360600147396,32.59378610015847,0.023601299850270152,32.60139779979363,,,,,,,,,,,,,,,,,,,,,1905_1145,60.0,
-77,77,90,centralcue,3,16,208,23,,,,,,,,,,,session,2729.8383361999877,108.0,6.0,2.0,72.0,0.02438922240000001,6,0.4137862999923527,0.5475263998378068,,2,0.9769468999002129,1.2109445000533015,1,0.25807300000451505,0.3741842000745237,,66.0,57.0,1905_1145,60.0,
77,77,-45,centralcue,3,17,209,16,,,,,,,,,,,session,2737.762810900109,96.0,6.0,2.0,72.0,0.02438922240000001,1,0.8961147000081837,1.0041784001514316,,5,0.2697546000126749,0.43604660010896623,6,0.18772040004841983,0.36686319997534156,,51.0,51.0,1905_1145,60.0,
77,77,-45,nocue,3,18,210,48,,,,,,,,,,,session,2744.8048002000432,108.0,6.0,2.0,72.0,0.02438922240000001,1,0.5655335998162627,0.7326701998244971,,5,0.3129753000102937,0.4794781000819057,6,0.2673904998227954,0.4159058998338878,,66.0,51.0,1905_1145,60.0,
-77,77,45,centralcue,3,19,211,22,,,,,,,,,,,session,2752.176230299985,102.0,6.0,2.0,72.0,0.02438922240000001,7,0.5952076998073608,0.7465725999791175,,2,0.2974110001232475,0.44757180009037256,6,0.616534800035879,0.7332494000438601,,54.0,69.0,1905_1145,60.0,
-77,-77,-45,allcue,3,20,212,12,,,,,,,,,,,session,2759.7967558000237,114.0,6.0,2.0,72.0,0.02438922240000001,1,0.8182849998120219,0.9842270999215543,,3,0.21792629989795387,0.4433096998836845,6,0.4144176999107003,0.5473454999737442,,54.0,63.0,1905_1145,60.0,
-77,-77,45,nocue,3,21,213,62,,,,,,,,,,,session,2767.577336400049,120.0,6.0,2.0,72.0,0.02438922240000001,7,0.6789752000477165,0.8609051001258194,,3,0.27874650014564395,0.49766300013288856,6,0.4880382001865655,0.014121800195425749,,66.0,69.0,1905_1145,60.0,
77,77,90,locationcue,3,22,214,35,,,,,,,,,,,session,2775.6292119000573,132.0,6.0,2.0,72.0,0.02438922240000001,6,0.3338252999819815,0.49719000002369285,,5,0.7062955000437796,0.8889252999797463,6,0.4082449998240918,0.5083919998724014,,60.0,72.0,1905_1145,60.0,
-77,-77,45,centralcue,3,23,215,30,,,,,,,,,,,session,2783.8502510001417,114.0,6.0,2.0,72.0,0.02438922240000001,7,0.9221272000577301,1.0428677999880165,,3,0.3381968999747187,0.6387929001357406,6,0.4045924998354167,0.10295720002613962,,57.0,72.0,1905_1145,60.0,
77,-77,-45,centralcue,3,24,216,24,,,,,,,,,,,session,2791.946034600027,102.0,6.0,2.0,72.0,0.02438922240000001,1,0.38172910013236105,0.5664727000985295,,4,0.3288801000453532,0.5124158000107855,6,0.28383069997653365,0.401027400046587,,57.0,72.0,1905_1145,60.0,
77,-77,-45,nocue,3,25,217,56,,,,,,,,,,,session,2799.2434602000285,120.0,6.0,2.0,72.0,0.02438922240000001,1,0.5326436997856945,0.68254469987005,,4,0.36622429988346994,0.5160817999858409,1,0.254709699889645,0.38641669997014105,,69.0,66.0,1905_1145,60.0,
77,77,0,nocue,3,26,218,49,,,,,,,,,,,session,2807.015570000047,102.0,6.0,2.0,72.0,0.02438922240000001,0,0.3619244999717921,0.5286735999397933,,5,0.5720385999884456,0.7724497001618147,1,0.2977118999697268,0.41432059998624027,,54.0,51.0,1905_1145,60.0,
77,77,0,allcue,3,27,219,1,,,,,,,,,,,session,2814.6420919999946,138.0,6.0,2.0,72.0,0.02438922240000001,0,0.3112055999226868,0.5613371999934316,,5,0.4457578998990357,0.6813817999791354,6,0.41968950000591576,0.0850231999065727,,63.0,69.0,1905_1145,60.0,
-77,-77,90,centralcue,3,28,220,31,,,,,,,,,,,session,2822.746085900115,120.0,6.0,2.0,72.0,0.02438922240000001,6,0.28022459987550974,0.4606323998887092,,3,0.592422999907285,0.8414135999046266,1,0.2918595999944955,0.4419304998591542,,60.0,48.0,1905_1145,60.0,
77,-77,0,locationcue,3,29,221,41,,,,,,,,,,,session,2830.234503200045,108.0,6.0,2.0,72.0,0.02438922240000001,0,0.3231947999447584,0.5231663999147713,,4,0.9720317001920193,1.1574182000476867,6,0.27631089999340475,0.41398370009846985,,48.0,72.0,1905_1145,60.0,
-77,77,90,allcue,3,30,222,7,,,,,,,,,,,session,2838.563834000146,114.0,6.0,2.0,72.0,0.02438922240000001,0,0.397191499825567,0.6145471998024732,,2,0.5482378001324832,0.7157982001081109,1,2.372210699832067,2.4884088998660445,,63.0,48.0,1905_1145,60.0,
-77,77,90,nocue,3,31,223,55,,,,,,,,,,,session,2848.0814633001573,114.0,6.0,2.0,72.0,0.02438922240000001,6,0.38255059998482466,0.5158661000896245,,2,0.7001177000347525,0.8765229999553412,6,0.200910700019449,0.3535931999795139,,51.0,66.0,1905_1145,60.0,
-77,77,90,nocue,3,31,223,55,,,materials/instructions\12_break.png,2855.6579555000644,2856.9189799001906,0,1.0628759001847357,1.2594399000518024,0.018667199881747365,1.2704658000729978,,,,,,,,,,,,,,,,,,,,,1905_1145,60.0,
77,-77,45,nocue,3,32,224,58,,,,,,,,,,,session,2856.938535100082,114.0,6.0,2.0,72.0,0.02438922240000001,7,1.0473203000146896,1.1478814000729471,,4,0.4001173998694867,0.5642985999584198,1,0.850030800094828,0.9497038000263274,,69.0,54.0,1905_1145,60.0,
-77,-77,45,locationcue,3,33,225,46,,,,,,,,,,,session,2865.493682899978,150.0,6.0,2.0,72.0,0.02438922240000001,7,0.8451044000685215,0.9962772999424487,,3,0.41333610005676746,0.5126582998782396,6,5.5743496001232415,5.707003399962559,,54.0,60.0,1905_1145,60.0,
77,77,90,nocue,3,34,226,51,,,,,,,,,,,session,2879.0607021001633,150.0,6.0,2.0,72.0,0.02438922240000001,6,0.3828060000669211,0.5832464001141489,,5,1.7472973999101669,1.9659186999779195,1,0.2706830999813974,0.40337640000507236,,48.0,51.0,1905_1145,60.0,
-77,-77,0,allcue,3,35,227,13,,,,,,,,,,,session,2888.1275094000157,102.0,6.0,2.0,72.0,0.02438922240000001,0,0.06253760005347431,0.330775200156495,,3,0.378979500150308,0.5788613001350313,6,0.28009280003607273,0.39929760014638305,,69.0,48.0,1905_1145,60.0,
77,-77,45,centralcue,3,36,228,26,,,,,,,,,,,session,2895.0201797001064,108.0,6.0,2.0,72.0,0.02438922240000001,7,1.1101693999953568,1.2259206001181155,,4,0.25785029982216656,0.4726853999309242,6,0.8044296000152826,0.9217982001136988,,63.0,66.0,1905_1145,60.0,
77,-77,-45,allcue,3,37,229,8,,,,,,,,,,,session,2903.8424121001735,150.0,6.0,2.0,72.0,0.02438922240000001,1,0.460361200151965,0.5766664000693709,,4,0.3298725001513958,0.5639256001450121,6,0.30304330005310476,0.3858616000507027,,51.0,60.0,1905_1145,60.0,
77,77,-45,allcue,3,38,230,0,,,,,,,,,,,session,2911.6618994001765,138.0,6.0,2.0,72.0,0.02438922240000001,1,1.064584800042212,1.1980109000578523,,5,0.2751651001162827,0.4429447001311928,6,1.5770165000576526,1.691704099997878,,66.0,57.0,1905_1145,60.0,
77,77,90,centralcue,3,39,231,19,,,,,,,,,,,session,2921.289693500148,102.0,6.0,2.0,72.0,0.02438922240000001,6,0.3282534999307245,0.4587721999268979,,5,0.35300560016185045,0.537946900120005,6,1.2349376000929624,1.3514520002063364,,69.0,57.0,1905_1145,60.0,
77,77,0,centralcue,3,40,232,17,,,,,,,,,,,session,2929.425659300061,138.0,6.0,2.0,72.0,0.02438922240000001,0,0.3434046001639217,0.4770381001289934,,5,0.3140632000286132,0.49742449983023107,6,0.3831543999258429,0.5326549999881536,,54.0,48.0,1905_1145,60.0,
-77,77,0,centralcue,3,41,233,21,,,,,,,,,,,session,2936.8978522000834,102.0,6.0,2.0,72.0,0.02438922240000001,0,0.3097196000162512,0.4094873000867665,,2,0.7506266001146287,0.916238300036639,6,0.5355559000745416,0.6005647000856698,,63.0,57.0,1905_1145,60.0,
-77,-77,0,centralcue,3,42,234,29,,,,,,,,,,,session,2944.4786414001137,114.0,6.0,2.0,72.0,0.02438922240000001,0,0.38014889997430146,0.5637665998656303,,3,0.961359899956733,1.143784899963066,1,0.32021949999034405,0.43736650003120303,,48.0,60.0,1905_1145,60.0,
77,-77,-45,locationcue,3,43,235,40,,,,,,,,,,,session,2952.2770891000982,132.0,6.0,2.0,72.0,0.02438922240000001,1,0.5139806000515819,0.6462075999006629,,4,0.36525749997235835,0.5162114999257028,6,0.41423550015315413,0.5470492001622915,,48.0,63.0,1905_1145,60.0,
-77,-77,45,allcue,3,44,236,14,,,,,,,,,,,session,2959.9819180001505,150.0,6.0,2.0,72.0,0.02438922240000001,1,1.137658900115639,1.2846452998928726,,3,0.11833269987255335,0.3672893999610096,1,0.03262019995599985,0.15031439997255802,,60.0,54.0,1905_1145,60.0,
-77,77,-45,centralcue,3,45,237,20,,,,,,,,,,,session,2968.509478500113,108.0,6.0,2.0,72.0,0.02438922240000001,1,0.601641200017184,0.7680081999860704,,2,0.6110139999072999,0.7965625999495387,6,0.37020100001245737,0.48718239995650947,,51.0,57.0,1905_1145,60.0,
-77,-77,0,locationcue,3,46,238,45,,,,,,,,,,,session,2976.094905300066,120.0,6.0,2.0,72.0,0.02438922240000001,0,0.373430100036785,0.5910273999907076,,3,0.5161803001537919,0.666305199963972,1,0.2906680000014603,0.45720669999718666,,60.0,48.0,1905_1145,60.0,
-77,77,0,allcue,3,47,239,5,,,,,,,,,,,session,2983.5533820001874,126.0,6.0,2.0,72.0,0.02438922240000001,0,0.3197910999879241,0.48470180016011,,2,0.6250598998740315,0.8044159000273794,6,0.10132479993626475,0.23578320001251996,,60.0,66.0,1905_1145,60.0,
-77,77,0,allcue,3,47,239,5,,,materials/instructions\12_break.png,2991.7875004999805,2993.2773266001604,0,1.3528565000742674,1.4875577001366764,0.02365210000425577,1.492385300109163,,,,,,,,,,,,,,,,,,,,,1905_1145,60.0,
-77,77,45,allcue,3,48,240,6,,,,,,,,,,,session,2993.2900574000087,126.0,6.0,2.0,72.0,0.02438922240000001,7,0.6148583998437971,0.731912299990654,,2,0.32689039991237223,0.4595417999662459,6,0.23355729994364083,0.3339636998716742,,66.0,54.0,1905_1145,60.0,
77,-77,0,nocue,3,49,241,57,,,,,,,,,,,session,3000.8647521999665,126.0,6.0,2.0,72.0,0.02438922240000001,0,0.45025200000964105,0.650857999920845,,4,0.3952442000154406,0.5294257998466492,1,0.29029750009067357,0.41321490006521344,,48.0,66.0,1905_1145,60.0,
77,-77,45,allcue,3,50,242,10,,,,,,,,,,,session,3008.4124356000684,132.0,6.0,2.0,72.0,0.02438922240000001,7,1.29591070022434,1.4785762000828981,,4,0.7287527001462877,0.8787406999617815,6,0.3712190999649465,0.4881437998265028,,51.0,72.0,1905_1145,60.0,
-77,-77,90,nocue,3,51,243,63,,,,,,,,,,,session,3017.777986000059,126.0,6.0,2.0,72.0,0.02438922240000001,6,1.3969594000373036,1.480546000180766,,4,1.1132712000980973,1.2633485000114888,0,0.28721609991043806,0.4378812999930233,,69.0,66.0,1905_1145,60.0,
77,77,45,centralcue,3,52,244,18,,,,,,,,,,,session,3027.2531620000955,96.0,6.0,2.0,72.0,0.02438922240000001,7,0.977356499992311,1.1094594998285174,,5,0.4549158001318574,0.6049093001056463,6,0.30599360004998744,0.40598969999700785,,72.0,57.0,1905_1145,60.0,
77,77,0,locationcue,3,53,245,33,,,,,,,,,,,session,3035.3607499999925,102.0,6.0,2.0,72.0,0.02438922240000001,0,0.43092920002527535,0.6144514000043273,,5,0.38909829990006983,0.5052034000400454,6,0.31990729994140565,0.43633750011213124,,51.0,48.0,1905_1145,60.0,
77,77,45,locationcue,3,54,246,34,,,,,,,,,,,session,3042.195492600091,102.0,6.0,2.0,72.0,0.02438922240000001,7,0.32529160007834435,0.5060253001283854,,5,0.31645929999649525,0.5163557999767363,6,0.21742280013859272,0.29997440008446574,,51.0,60.0,1905_1145,60.0,
-77,77,90,locationcue,3,55,247,39,,,,,,,,,,,session,3049.0002544000745,150.0,6.0,2.0,72.0,0.02438922240000001,6,0.30913529987446964,0.47601299989037216,,2,0.8733407000545412,1.0506351999938488,1,0.4500259000342339,0.13248570007272065,,57.0,66.0,1905_1145,60.0,
-77,77,-45,allcue,3,56,248,4,,,,,,,,,,,session,3057.8794971001334,120.0,6.0,2.0,72.0,0.02438922240000001,1,0.3624836001545191,0.4938382999971509,,2,0.311376899946481,0.4962430999148637,6,0.2491862999740988,0.35118399979546666,,69.0,57.0,1905_1145,60.0,
-77,77,45,nocue,3,57,249,54,,,,,,,,,,,session,3065.264227300184,138.0,6.0,2.0,72.0,0.02438922240000001,7,0.30732650007121265,0.4586126001086086,,2,0.31500429986044765,0.5127319998573512,6,0.2581100999377668,0.44189799996092916,,66.0,57.0,1905_1145,60.0,
77,77,45,allcue,3,58,250,2,,,,,,,,,,,session,3072.954355900176,150.0,6.0,2.0,72.0,0.02438922240000001,7,0.9910051999613643,1.1409926998894662,,5,0.2622458999976516,0.41292629996314645,6,3.5111873999703676,3.6442034000065178,,72.0,66.0,1905_1145,60.0,
77,77,45,nocue,3,59,251,50,,,,,,,,,,,session,3085.4626903000753,150.0,6.0,2.0,72.0,0.02438922240000001,7,0.3169090000446886,0.5314351001288742,,5,0.3695837000850588,0.534169299993664,6,0.1715660998597741,0.3746301999781281,,66.0,63.0,1905_1145,60.0,
77,-77,90,nocue,3,60,252,59,,,,,,,,,,,session,3093.4890733000357,102.0,6.0,2.0,72.0,0.02438922240000001,6,0.3064405999612063,0.4363865000195801,,4,0.3592002000659704,0.5106840000953525,6,1.225730000063777,1.3256677000317723,,54.0,48.0,1905_1145,60.0,
77,-77,0,centralcue,3,61,253,25,,,,,,,,,,,session,3101.4765592999756,102.0,6.0,2.0,72.0,0.02438922240000001,0,0.38048280007205904,0.5307127998676151,,4,0.05174289993010461,0.20362339983694255,6,0.3211813000962138,0.45716680004261434,,51.0,63.0,1905_1145,60.0,
77,-77,0,allcue,3,62,254,9,,,,,,,,,,,session,3108.1988966001663,120.0,6.0,2.0,72.0,0.02438922240000001,0,0.22656510001979768,0.4433301000390202,,4,0.3319020001217723,0.494724600110203,6,0.2204495999030769,0.33810960012488067,,54.0,51.0,1905_1145,60.0,
-77,-77,90,allcue,3,63,255,15,,,,,,,,,,,session,3115.169239900075,108.0,6.0,2.0,72.0,0.02438922240000001,6,0.2568479999899864,0.3907813001424074,,3,0.31955780019052327,0.4470562001224607,1,0.3336205999366939,0.033041599905118346,,69.0,57.0,1905_1145,60.0,
-77,-77,90,allcue,3,63,255,15,,,materials/instructions\12_break.png,3122.3771014001686,3135.064508300042,0,12.685801800107583,0.1797832001466304,0.018728700000792742,12.693593699950725,,,,,,,,,,,,,,,,,,,,,1905_1145,60.0,
-77,-77,-45,locationcue,4,0,256,44,,,,,,,,,,,session,3135.0806293000933,126.0,6.0,2.0,72.0,0.02438922240000001,1,0.9768502998631448,1.0635445998050272,,3,1.5031821001321077,1.6377730001695454,1,0.27927629998885095,0.3799145999364555,,48.0,57.0,1905_1145,60.0,
77,-77,-45,allcue,4,1,257,8,,,,,,,,,,,session,3143.9760677001905,96.0,6.0,2.0,72.0,0.02438922240000001,1,1.0231864999514073,1.2066212999634445,,4,0.5790468999184668,0.7125565998721868,6,0.6685190999414772,0.7688762000761926,,60.0,60.0,1905_1145,60.0,
77,-77,45,nocue,4,2,258,58,,,,,,,,,,,session,3152.212949300185,126.0,6.0,2.0,72.0,0.02438922240000001,7,1.497498800046742,1.6116949000861496,,4,0.3620954998768866,0.4955382999032736,6,0.33212399994954467,0.43247310002334416,,54.0,54.0,1905_1145,60.0,
77,-77,-45,locationcue,4,3,259,40,,,,,,,,,,,session,3160.61895010015,102.0,6.0,2.0,72.0,0.02438922240000001,1,0.6118294999469072,0.7312413000036031,,4,0.31320279999636114,0.3949033999815583,6,0.24266329989768565,0.392722399905324,,63.0,51.0,1905_1145,60.0,
-77,77,90,allcue,4,4,260,7,,,,,,,,,,,session,3168.061909100041,150.0,6.0,2.0,72.0,0.02438922240000001,6,0.3333757999353111,0.4822490999940783,,2,0.6465141999069601,0.8800502000376582,1,0.5401769999880344,0.2400612998753786,,63.0,72.0,1905_1145,60.0,
-77,-77,0,centralcue,4,5,261,29,,,,,,,,,,,session,3176.650033000158,114.0,6.0,2.0,72.0,0.02438922240000001,0,0.33106140000745654,0.48342599999159575,,3,0.07663420005701482,0.2778455000370741,6,0.2431691000238061,0.35969750001095235,,51.0,72.0,1905_1145,60.0,
-77,-77,90,locationcue,4,6,262,47,,,,,,,,,,,session,3183.6539735000115,114.0,6.0,2.0,72.0,0.02438922240000001,6,0.2973992999177426,0.39730029995553195,,3,0.25568780000321567,0.3924800001550466,6,0.30184379988349974,0.40238469978794456,,57.0,48.0,1905_1145,60.0,
-77,-77,0,nocue,4,7,263,61,,,,,,,,,,,session,3190.8118549000937,144.0,6.0,2.0,72.0,0.02438922240000001,0,0.2278209999203682,0.411353699862957,,3,0.30720170005224645,0.4411621999461204,1,0.28713149996474385,0.41946020000614226,,72.0,57.0,1905_1145,60.0,
77,77,-45,allcue,4,8,264,0,,,,,,,,,,,session,3198.580587600125,96.0,6.0,2.0,72.0,0.02438922240000001,1,1.2318341999780387,1.3477777999360114,,5,0.31405659997835755,0.4958174000494182,6,0.7565350998193026,0.865846199914813,,63.0,69.0,1905_1145,60.0,
77,-77,45,locationcue,4,9,265,42,,,,,,,,,,,session,3207.0467381000053,132.0,6.0,2.0,72.0,0.02438922240000001,7,0.7440959000959992,0.9604784999974072,,4,1.0564536999445409,1.2214043999556452,6,0.30394709995016456,0.453169799875468,,48.0,57.0,1905_1145,60.0,
-77,77,0,nocue,4,10,266,53,,,,,,,,,,,session,3215.928401299985,108.0,6.0,2.0,72.0,0.02438922240000001,0,0.3306699001695961,0.48225879995152354,,2,0.6914332001470029,0.8418571001384407,6,0.3346963000949472,0.501191700110212,,63.0,69.0,1905_1145,60.0,
-77,-77,-45,allcue,4,11,267,12,,,,,,,,,,,session,3223.7012302000076,144.0,6.0,2.0,72.0,0.02438922240000001,1,0.6275265000294894,0.7786724001634866,,3,0.38284049998037517,0.5146518000401556,6,0.2981511000543833,0.4363118999172002,,66.0,72.0,1905_1145,60.0,
-77,77,0,allcue,4,12,268,5,,,,,,,,,,,session,3232.0808584000915,96.0,6.0,2.0,72.0,0.02438922240000001,0,0.5953893999103457,0.7604935998097062,,2,0.7489320999011397,0.8663484000135213,6,0.40265079983510077,0.5029784999787807,,63.0,48.0,1905_1145,60.0,
77,-77,0,allcue,4,13,269,9,,,,,,,,,,,session,3239.594990400132,126.0,6.0,2.0,72.0,0.02438922240000001,0,0.39474380016326904,0.5809851000085473,,4,0.9809648999944329,1.1473006000742316,6,0.3024565000087023,0.40503000002354383,,57.0,72.0,1905_1145,60.0,
77,77,0,centralcue,4,14,270,17,,,,,,,,,,,session,3247.92173609999,96.0,6.0,2.0,72.0,0.02438922240000001,0,0.40884830011054873,0.10814370005391538,,5,0.6015794998966157,0.7534864000044763,6,0.3318547001108527,0.08290289994329214,,60.0,66.0,1905_1145,60.0,
-77,-77,-45,centralcue,4,15,271,28,,,,,,,,,,,session,3255.365255100187,102.0,6.0,2.0,72.0,0.02438922240000001,1,0.7335663998965174,0.900544999865815,,3,0.2535425000824034,0.5390548000577837,6,0.3049349000211805,0.3522404001560062,,63.0,63.0,1905_1145,60.0,
-77,-77,-45,centralcue,4,15,271,28,,,materials/instructions\12_break.png,3262.920226200018,3273.60610630014,0,10.573776999954134,10.682864699978381,0.011429399950429797,10.695732199819759,,,,,,,,,,,,,,,,,,,,,1905_1145,60.0,
77,-77,0,centralcue,4,16,272,25,,,,,,,,,,,session,3273.626020600088,108.0,6.0,2.0,72.0,0.02438922240000001,0,0.36358699994161725,0.49997879983857274,,4,0.3778210000600666,0.528637700015679,6,0.11835579993203282,0.2672318001277745,,57.0,60.0,1905_1145,60.0,
77,-77,90,allcue,4,17,273,11,,,,,,,,,,,session,3280.8947088001296,138.0,6.0,2.0,72.0,0.02438922240000001,6,0.31492029991932213,0.4477595998905599,,4,0.21666089980863035,0.39976519998162985,1,0.1685736000072211,0.29856910021044314,,51.0,54.0,1905_1145,60.0,
-77,-77,0,allcue,4,18,274,13,,,,,,,,,,,session,3288.031722899992,102.0,6.0,2.0,72.0,0.02438922240000001,0,0.4312499000225216,0.5969932998996228,,3,1.0339780999347568,1.2189112999476492,6,0.275544699979946,0.3909819000400603,,72.0,63.0,1905_1145,60.0,
77,77,90,centralcue,4,19,275,19,,,,,,,,,,,session,3296.1137433999684,144.0,6.0,2.0,72.0,0.02438922240000001,6,0.2774501999374479,0.4138334998860955,,5,0.40796089987270534,0.5757326998282224,1,0.21651840000413358,0.3337620999664068,,51.0,66.0,1905_1145,60.0,
77,77,0,locationcue,4,20,276,33,,,,,,,,,,,session,3303.915291200159,114.0,6.0,2.0,72.0,0.02438922240000001,0,0.29945480008609593,0.5159733002074063,,5,0.350679200142622,0.5822952000889927,6,0.23959519993513823,0.3560906001366675,,54.0,57.0,1905_1145,60.0,
-77,77,0,centralcue,4,21,277,21,,,,,,,,,,,session,3311.050421599997,96.0,6.0,2.0,72.0,0.02438922240000001,0,0.05381319997832179,0.23903030017390847,,2,0.3622666001319885,0.5125717001501471,6,0.314817399950698,0.39276760001666844,,63.0,54.0,1905_1145,60.0,
-77,77,-45,nocue,4,22,278,52,,,,,,,,,,,session,3317.726787300082,144.0,6.0,2.0,72.0,0.02438922240000001,1,0.7624343000352383,0.911807999946177,,2,0.725110299885273,0.9092814999166876,6,0.3335341000929475,0.4002970999572426,,54.0,54.0,1905_1145,60.0,
77,-77,-45,nocue,4,23,279,56,,,,,,,,,,,session,3326.4299208000302,102.0,6.0,2.0,72.0,0.02438922240000001,1,0.4104689999949187,0.5265100998803973,,4,0.31238580006174743,0.479449599981308,6,0.1659176000393927,0.2989449999295175,,48.0,60.0,1905_1145,60.0,
-77,77,90,locationcue,4,24,280,39,,,,,,,,,,,session,3333.1674703001045,150.0,6.0,2.0,72.0,0.02438922240000001,6,0.17698720004409552,0.3452111000660807,,2,0.4987017000094056,0.12912659998983145,6,0.27084039989858866,0.3535277999471873,,63.0,72.0,1905_1145,60.0,
-77,77,45,locationcue,4,25,281,38,,,,,,,,,,,session,3341.0818435000256,144.0,6.0,2.0,72.0,0.02438922240000001,7,0.8223860999569297,1.0406835000030696,,2,0.26619810005649924,0.44973870017565787,6,0.31817290000617504,0.4363078000023961,,69.0,69.0,1905_1145,60.0,
-77,77,45,allcue,4,26,282,6,,,,,,,,,,,session,3349.697762100026,144.0,6.0,2.0,72.0,0.02438922240000001,7,0.839250799966976,1.0896294999402016,,2,0.3477855999954045,0.5468065999448299,6,0.24011070001870394,0.35723529988899827,,57.0,63.0,1905_1145,60.0,
-77,77,45,centralcue,4,27,283,22,,,,,,,,,,,session,3358.037187400041,102.0,6.0,2.0,72.0,0.02438922240000001,7,1.4478007999714464,1.5808210999239236,,2,1.0735420999117196,1.2374958998989314,6,1.335947599960491,1.485947399865836,,60.0,48.0,1905_1145,60.0,
77,-77,45,allcue,4,28,284,10,,,,,,,,,,,session,3367.87943239999,150.0,6.0,2.0,72.0,0.02438922240000001,7,0.9518373000901192,1.0851054000668228,,4,0.1436711000278592,0.325065900105983,6,0.28482990013435483,0.40238540014252067,,72.0,72.0,1905_1145,60.0,
-77,-77,45,allcue,4,29,285,14,,,,,,,,,,,session,3376.534605000168,108.0,6.0,2.0,72.0,0.02438922240000001,7,0.8860130999237299,1.0536170999985188,,3,0.38676710007712245,0.6029392001219094,1,0.37123729987069964,0.4835074997972697,,66.0,63.0,1905_1145,60.0,
77,77,90,nocue,4,30,286,51,,,,,,,,,,,session,3384.5611102001276,150.0,6.0,2.0,72.0,0.02438922240000001,6,0.33887140010483563,0.45338979992084205,,5,0.43000490008853376,0.613437999971211,1,0.2487266999669373,0.39886289997957647,,57.0,63.0,1905_1145,60.0,
77,77,-45,locationcue,4,31,287,32,,,,,,,,,,,session,3392.6798740001395,120.0,6.0,2.0,72.0,0.02438922240000001,1,0.4129943000152707,0.5459243999794126,,5,0.38223899994045496,0.5824011999648064,6,0.10257699992507696,0.26924779987894,,63.0,72.0,1905_1145,60.0,
77,77,-45,locationcue,4,31,287,32,,,materials/instructions\12_break.png,3400.311745900195,3401.9186558001675,0,1.4036669000051916,1.6041693000588566,0.02453970001079142,1.6117517999373376,,,,,,,,,,,,,,,,,,,,,1905_1145,60.0,
-77,77,90,centralcue,4,32,288,23,,,,,,,,,,,session,3401.9332960001193,96.0,6.0,2.0,72.0,0.02438922240000001,0,0.23085410008206964,0.4296856999862939,,2,4.377009799936786,4.544690900016576,0,0.24165280000306666,0.391020999988541,,54.0,63.0,1905_1145,60.0,
-77,77,-45,allcue,4,33,289,4,,,,,,,,,,,session,3412.8972557000816,120.0,6.0,2.0,72.0,0.02438922240000001,1,0.4755009999498725,0.6105573000386357,,2,0.5635313999373466,0.762063300004229,6,0.32318309997208416,0.42323870002292097,,48.0,54.0,1905_1145,60.0,
77,-77,90,nocue,4,34,290,59,,,,,,,,,,,session,3420.334833299974,150.0,6.0,2.0,72.0,0.02438922240000001,6,0.34931070008315146,0.44860409991815686,,4,0.2826751999091357,0.46630980004556477,6,0.28203679993748665,0.41697619995102286,,66.0,63.0,1905_1145,60.0,
77,77,-45,centralcue,4,35,291,16,,,,,,,,,,,session,3428.2666668000165,132.0,6.0,2.0,72.0,0.02438922240000001,1,0.6470350997988135,0.8335579999256879,,5,0.29930110019631684,0.4646107000298798,6,0.2522606998682022,0.3689596999902278,,63.0,69.0,1905_1145,60.0,
-77,77,90,nocue,4,36,292,55,,,,,,,,,,,session,3436.5975894001313,114.0,6.0,2.0,72.0,0.02438922240000001,6,1.1982730999588966,1.3654859000816941,,2,0.46081540011800826,0.6115227001719177,0,0.41478709992952645,0.5648080001119524,,48.0,69.0,1905_1145,60.0,
77,77,45,locationcue,4,37,293,34,,,,,,,,,,,session,3444.9358246000484,114.0,6.0,2.0,72.0,0.02438922240000001,7,1.8735788001213223,1.9883620999753475,,5,0.6347900000400841,0.7846172000281513,6,11.6912457998842,11.857621500035748,,51.0,63.0,1905_1145,60.0,
77,77,-45,nocue,4,38,294,48,,,,,,,,,,,session,3465.3035205001943,96.0,6.0,2.0,72.0,0.02438922240000001,1,0.9784899998921901,1.1452281000092626,,5,0.39413329982198775,0.5302621000446379,1,0.11453379993326962,0.23911319999024272,,54.0,69.0,1905_1145,60.0,
-77,77,45,nocue,4,39,295,54,,,,,,,,,,,session,3472.8225364000537,132.0,6.0,2.0,72.0,0.02438922240000001,7,0.6628783999476582,0.8297915000002831,,2,0.32575730001553893,0.4907123998273164,6,0.2717385001014918,0.38570220000110567,,54.0,48.0,1905_1145,60.0,
77,-77,0,nocue,4,40,296,57,,,,,,,,,,,session,3480.6302559000906,126.0,6.0,2.0,72.0,0.02438922240000001,0,0.44791330001316965,0.13143560010939837,,4,0.4131986000575125,0.5471592000685632,6,0.29162060003727674,0.40955980005674064,,72.0,63.0,1905_1145,60.0,
77,77,90,locationcue,4,41,297,35,,,,,,,,,,,session,3488.3371655000374,108.0,6.0,2.0,72.0,0.02438922240000001,6,0.256804300006479,0.3674347000196576,,5,0.19714759988710284,0.3976690999697894,0,0.34546490013599396,0.49758700001984835,,51.0,51.0,1905_1145,60.0,
77,77,0,nocue,4,42,298,49,,,,,,,,,,,session,3495.0337005001493,96.0,6.0,2.0,72.0,0.02438922240000001,0,0.2390306000597775,0.4577017000410706,,5,0.6609980999492109,0.9607671999838203,6,0.2836160999722779,0.40216260007582605,,69.0,69.0,1905_1145,60.0,
77,77,45,allcue,4,43,299,2,,,,,,,,,,,session,3502.931827499997,138.0,6.0,2.0,72.0,0.02438922240000001,7,1.4680103999562562,1.634400200098753,,5,0.6294674999080598,0.7965189998503774,6,0.26549139991402626,0.3815635999199003,,72.0,66.0,1905_1145,60.0,
-77,-77,45,nocue,4,44,300,62,,,,,,,,,,,session,3512.2704122001305,102.0,6.0,2.0,72.0,0.02438922240000001,7,0.807103700004518,0.9613681000191718,,3,0.5457554999738932,0.7459801998920739,1,0.13768140017054975,0.3210239000618458,,57.0,57.0,1905_1145,60.0,
77,-77,45,centralcue,4,45,301,26,,,,,,,,,,,session,3519.9335877001286,144.0,6.0,2.0,72.0,0.02438922240000001,7,1.117252100026235,1.251228499924764,,4,0.3295214001554996,0.5130266000051051,6,0.5983398000244051,0.7293448999989778,,57.0,69.0,1905_1145,60.0,
77,-77,90,locationcue,4,46,302,43,,,,,,,,,,,session,3528.868249800056,120.0,6.0,2.0,72.0,0.02438922240000001,6,0.34284879988990724,0.4429138998966664,,4,0.4983199997805059,0.6993821999058127,6,0.012959799962118268,0.10474069998599589,,63.0,69.0,1905_1145,60.0,
-77,-77,-45,nocue,4,47,303,60,,,,,,,,,,,session,3536.254600299988,132.0,6.0,2.0,72.0,0.02438922240000001,1,1.1146364000160247,1.2810106000397354,,3,0.3075703999493271,0.4788365000858903,1,0.2733013001270592,0.4231591001152992,,63.0,72.0,1905_1145,60.0,
-77,-77,-45,nocue,4,47,303,60,,,materials/instructions\12_break.png,3545.3513735001907,3575.300356599968,0,29.813262599986047,29.94683390017599,0.014786599902436137,29.954380200011656,,,,,,,,,,,,,,,,,,,,,1905_1145,60.0,
77,77,45,nocue,4,48,304,50,,,,,,,,,,,session,3575.3155739000067,114.0,6.0,2.0,72.0,0.02438922240000001,7,0.8662070999853313,1.049776199972257,,5,0.7875485999975353,1.0031904999632388,1,0.2982681000139564,0.4642344999592751,,54.0,57.0,1905_1145,60.0,
77,77,0,allcue,4,49,305,1,,,,,,,,,,,session,3583.550247500185,150.0,6.0,2.0,72.0,0.02438922240000001,0,0.2883611998986453,0.4544029999524355,,5,0.363702799892053,0.5119250998832285,6,0.20346940006129444,0.32093479996547103,,57.0,54.0,1905_1145,60.0,
77,-77,90,centralcue,4,50,306,27,,,,,,,,,,,session,3591.331195099978,144.0,6.0,2.0,72.0,0.02438922240000001,6,0.296074400190264,0.37938760011456907,,4,0.16008770000189543,0.3105880001094192,6,1.4385540001094341,1.539458200102672,,60.0,60.0,1905_1145,60.0,
77,77,45,centralcue,4,51,307,18,,,,,,,,,,,session,3599.923670000164,108.0,6.0,2.0,72.0,0.02438922240000001,7,0.5354023000691086,0.6403008000925183,,5,0.09570570010691881,0.28120940015651286,6,0.1437749001197517,0.24822310009039938,,48.0,63.0,1905_1145,60.0,
77,-77,-45,centralcue,4,52,308,24,,,,,,,,,,,session,3606.7510396,126.0,6.0,2.0,72.0,0.02438922240000001,1,0.5274319001473486,0.21010800008662045,,4,0.21454529999755323,0.38261869992129505,7,0.33580729993991554,0.08267719997093081,,60.0,60.0,1905_1145,60.0,
-77,-77,0,locationcue,4,53,309,45,,,,,,,,,,,session,3614.053058100166,138.0,6.0,2.0,72.0,0.02438922240000001,0,0.33101409999653697,0.4814433997962624,,3,1.5361941999290138,1.7191349999047816,6,0.27036859979853034,0.35430429992266,,54.0,51.0,1905_1145,60.0,
-77,-77,90,nocue,4,54,310,63,,,,,,,,,,,session,3622.6048916999716,150.0,6.0,2.0,72.0,0.02438922240000001,6,0.3662250000052154,0.5158033999614418,,3,0.24974960018880665,0.42972880019806325,1,0.20974769978784025,0.3602799999061972,,57.0,60.0,1905_1145,60.0,
-77,-77,90,allcue,4,55,311,15,,,,,,,,,,,session,3630.5977928000502,150.0,6.0,2.0,72.0,0.02438922240000001,6,0.11263470002450049,0.2633464001119137,,3,0.3109112000092864,0.5081540001556277,1,0.24846090003848076,0.3978864001110196,,57.0,51.0,1905_1145,60.0,
