x,y,orientation,.thisRepN,.thisTrialN,.thisN,.thisIndex,.stepSize,.intensity,image_name,global_start_time,global_end_time,pressKey,pressRT,releaseRT,image_started,image_ended,name,globalTime,fixation_dur,stimulation_dur,post_fixation,opacity,locationResponse_pressKey,locationResponse_pressRT,locationResponse_releaseRT,orientationResponse_pressKey,orientationResponse_pressRT,orientationResponse_releaseRT,pasResponse_pressKey,pasResponse_pressRT,pasResponse_releaseRT,.response,finalOpacity,postLoc,postOri,ID,frameRate,
,,,0,-1,-1,0,0.0969100130080564,None,materials/instructions\1_welcome.png,4.459036899992498,82.08046469998953,0,77.50255760000437,77.61928389999957,0.07621880000806414,77.62321820000943,,,,,,,,,,,,,,,,,,,,24295,60.0,
,,,0,-1,-1,0,0.0969100130080564,None,materials/instructions\2_instruction.png,82.13648790000298,109.03520569999819,0,26.715121900007944,26.896685600004275,0.01489620000938885,26.904447000008076,,,,,,,,,,,,,,,,,,,,24295,60.0,
,,,0,-1,-1,0,0.0969100130080564,None,materials/instructions\3_location_demo.png,109.09241729999485,125.54758749999746,0,16.252925799999502,16.453111800001352,0.01238020000164397,16.460159800000838,,,,,,,,,,,,,,,,,,,,24295,60.0,
,,,0,-1,-1,0,0.0969100130080564,None,materials/instructions\4_orientation_demo.png,125.60465300000214,147.09736639999028,0,21.290468299994245,21.490605500002857,0.013078600008157082,21.49833370000124,,,,,,,,,,,,,,,,,,,,24295,60.0,
,,,0,-1,-1,0,0.0969100130080564,None,materials/instructions\5_pas_demo.png,147.1531959999993,159.71281529999396,0,12.38735689999885,12.557855099992594,0.014365099996211939,12.56588959999499,,,,,,,,,,,,,,,,,,,,24295,60.0,
-152,152,-45,0,-1,-1,0,0.0969100130080564,None,,,,,,,,,session,159.7328675000026,150.0,2.0,72.0,1.0,2,1.9590131000004476,2.1590865000034682,1,1.5677680000080727,1.8011728000128642,7,2.917432500005816,3.1184787999955006,,,,,24295,60.0,
152,152,-45,0,-1,-1,0,0.0969100130080564,None,,,,,,,,,session,170.8519598999992,174.0,2.0,72.0,1.0,5,2.0089905000058934,2.208811300006346,1,1.1088181000086479,1.375807000003988,7,1.8114923999964958,2.037280799995642,,,,,24295,60.0,
152,152,0,0,-1,-1,0,0.0969100130080564,None,,,,,,,,,session,180.7675709000032,138.0,2.0,72.0,1.0,5,1.2378022999910172,1.437932599990745,0,2.1747139999934006,2.4090170999988914,7,1.3483842999994522,1.630019899996114,,,,,24295,60.0,
152,152,90,0,-1,-1,0,0.0969100130080564,None,,,,,,,,,session,190.36595589999342,138.0,2.0,72.0,1.0,5,1.6803719000017736,1.897157100000186,6,1.6950610000058077,1.9625897000078112,6,3.9001000999996904,4.150741400007973,,,,,24295,60.0,
152,152,45,0,-1,-1,0,0.0969100130080564,None,,,,,,,,,session,202.0773393999989,162.0,2.0,72.0,1.0,5,1.9670311999943806,2.1991639000043506,7,2.803749600003357,3.004268900011084,1,2.910613400003058,3.1937629000021843,,,,,24295,60.0,
,,,0,-1,-1,0,0.0969100130080564,None,materials/instructions\10_staircase_start.png,215.24001090000093,235.98250949999783,0,20.523841200003517,20.740489800009527,0.012878699999419041,20.748135600006208,,,,,,,,,,,,,,,,,,,,24295,60.0,
,,,0,0,-1,0,0.0969100130080564,0.4,,,,,,,,,staircase,235.99746339999547,156.0,2.0,72.0,0.4,,,,6,1.0922828000038862,1.309202100004768,,,,1,,,,24295,60.0,
,,,0,1,-1,0,0.0969100130080564,0.32,,,,,,,,,staircase,241.22062870000082,150.0,2.0,72.0,0.32,,,,7,1.225504899994121,1.5010132000024896,,,,1,,,,24295,60.0,
,,,0,2,-1,0,0.0969100130080564,0.256,,,,,,,,,staircase,246.54962389999127,144.0,2.0,72.0,0.256,,,,1,1.067423400003463,1.3174529000098119,,,,1,,,,24295,60.0,
,,,0,3,-1,0,0.0969100130080564,0.2048,,,,,,,,,staircase,252.11649509999552,168.0,2.0,72.0,0.2048,,,,7,1.0418198999977903,1.3420383000047877,,,,1,,,,24295,60.0,
,,,0,4,-1,0,0.0969100130080564,0.16384,,,,,,,,,staircase,257.5658131999953,150.0,2.0,72.0,0.16384,,,,7,0.69089859999076,0.9587704000005033,,,,1,,,,24295,60.0,
,,,0,5,-1,0,0.0969100130080564,0.13107200000000002,,,,,,,,,staircase,262.3367952999979,156.0,2.0,72.0,0.13107200000000002,,,,1,1.2121177000080934,1.4624030999984825,,,,1,,,,24295,60.0,
,,,0,6,-1,0,0.0969100130080564,0.10485760000000002,,,,,,,,,staircase,267.70699589999276,138.0,2.0,72.0,0.10485760000000002,,,,1,0.6533002999931341,0.9055993999936618,,,,1,,,,24295,60.0,
,,,0,7,-1,0,0.0969100130080564,0.08388608000000002,,,,,,,,,staircase,272.81612029999087,162.0,2.0,72.0,0.08388608000000002,,,,1,0.8870582000090508,1.1229149999999208,,,,1,,,,24295,60.0,
,,,0,8,-1,0,0.0969100130080564,0.06710886400000002,,,,,,,,,staircase,277.93506190000335,138.0,2.0,72.0,0.06710886400000002,,,,7,0.5530309999885503,0.820771099999547,,,,1,,,,24295,60.0,
,,,0,9,-1,0,0.0969100130080564,0.053687091200000016,,,,,,,,,staircase,282.36909880000167,150.0,2.0,72.0,0.053687091200000016,,,,6,0.5613918999879388,0.7961586999881547,,,,1,,,,24295,60.0,
,,,0,10,-1,0,0.0969100130080564,0.04294967296000001,,,,,,,,,staircase,286.9723549999908,150.0,2.0,72.0,0.04294967296000001,,,,7,0.955782499993802,1.227393099994515,,,,1,,,,24295,60.0,
,,,0,11,-1,0,0.0969100130080564,0.034359738368000006,,,,,,,,,staircase,292.15094249999675,126.0,2.0,72.0,0.034359738368000006,,,,1,1.4403790999931516,1.7075600999960443,,,,1,,,,24295,60.0,
,,,0,12,-1,0,0.0969100130080564,0.027487790694400004,,,,,,,,,staircase,297.448458400002,156.0,2.0,72.0,0.027487790694400004,,,,6,1.2398256000014953,1.4258529999933671,,,,1,,,,24295,60.0,
,,,0,13,-1,0,0.0969100130080564,0.021990232555520003,,,,,,,,,staircase,302.7862294999941,168.0,2.0,72.0,0.021990232555520003,,,,1,2.334829399987939,2.584133099997416,,,,1,,,,24295,60.0,
,,,0,14,-1,0,0.0969100130080564,0.017592186044416,,,,,,,,,staircase,309.4744439999922,144.0,2.0,72.0,0.017592186044416,,,,6,2.005029799998738,2.268098899992765,,,,0,,,,24295,60.0,
,,,0,15,-1,0,0.0969100130080564,0.021990232555520003,,,,,,,,,staircase,315.76328189999913,150.0,2.0,72.0,0.021990232555520003,,,,0,1.194289300008677,1.4602984000084689,,,,0,,,,24295,60.0,
,,,0,16,-1,0,0.0969100130080564,0.027487790694400004,,,,,,,,,staircase,321.03392370000074,168.0,2.0,72.0,0.027487790694400004,,,,1,1.3623513999918941,1.5963990000018384,,,,1,,,,24295,60.0,
,,,0,17,-1,0,0.0969100130080564,0.021990232555520003,,,,,,,,,staircase,326.7362540000031,132.0,2.0,72.0,0.021990232555520003,,,,6,1.2301167999976315,1.4802505999978166,,,,1,,,,24295,60.0,
,,,0,18,-1,0,0.0969100130080564,0.017592186044416,,,,,,,,,staircase,331.7246096000017,150.0,2.0,72.0,0.017592186044416,,,,1,1.1819375000050059,1.44437260000268,,,,0,,,,24295,60.0,
,,,0,19,-1,0,0.0969100130080564,0.021990232555520003,,,,,,,,,staircase,337.26292729999113,168.0,2.0,72.0,0.021990232555520003,,,,7,1.1791672999970615,1.4292123000050196,,,,0,,,,24295,60.0,
,,,0,20,-1,0,0.0969100130080564,0.027487790694400004,,,,,,,,,staircase,342.8334837000002,150.0,2.0,72.0,0.027487790694400004,,,,0,0.9584994000033475,1.292135000010603,,,,1,,,,24295,60.0,
,,,0,21,-1,0,0.0969100130080564,0.021990232555520003,,,,,,,,,staircase,347.9348192000034,144.0,2.0,72.0,0.021990232555520003,,,,7,1.0954551000031643,1.411753399996087,,,,1,,,,24295,60.0,
,,,0,22,-1,0,0.0969100130080564,0.017592186044416,,,,,,,,,staircase,353.0551706999977,168.0,2.0,72.0,0.017592186044416,,,,6,1.6118159999896307,1.8286039999948116,,,,0,,,,24295,60.0,
,,,0,23,-1,0,0.0969100130080564,0.021990232555520003,,,,,,,,,staircase,359.14628259999154,138.0,2.0,72.0,0.021990232555520003,,,,6,1.7128402000089409,1.9462205000018002,,,,0,,,,24295,60.0,
,,,0,24,-1,0,0.0969100130080564,0.027487790694400004,,,,,,,,,staircase,364.75252049999835,180.0,2.0,72.0,0.027487790694400004,,,,1,1.3783639000030234,1.59475139999995,,,,0,,,,24295,60.0,
,,,0,25,-1,0,0.0969100130080564,0.034359738368000006,,,,,,,,,staircase,370.65434339999047,162.0,2.0,72.0,0.034359738368000006,,,,7,0.9444211999943946,1.211200599995209,,,,1,,,,24295,60.0,
,,,0,26,-1,0,0.0969100130080564,0.027487790694400004,,,,,,,,,staircase,375.89030739999725,126.0,2.0,72.0,0.027487790694400004,,,,1,1.5539660999929765,1.837327599991113,,,,0,,,,24295,60.0,
,,,0,27,-1,0,0.0969100130080564,0.034359738368000006,,,,,,,,,staircase,381.3842128999968,168.0,2.0,72.0,0.034359738368000006,,,,7,0.6936691000009887,0.9289895999972941,,,,1,,,,24295,60.0,
,,,0,28,-1,0,0.0969100130080564,0.027487790694400004,,,,,,,,,staircase,386.4346890000015,138.0,2.0,72.0,0.027487790694400004,,,,6,1.8620069999888074,2.06219319999218,,,,0,,,,24295,60.0,
,,,0,29,-1,0,0.0969100130080564,0.034359738368000006,,,,,,,,,staircase,392.10140580000007,126.0,2.0,72.0,0.034359738368000006,,,,6,0.6324036000005435,0.866264800002682,,,,1,,,,24295,60.0,
,,,0,30,-1,0,0.0969100130080564,0.027487790694400004,,,,,,,,,staircase,396.372822099991,150.0,2.0,72.0,0.027487790694400004,,,,1,1.265752599996631,1.5047714999964228,,,,0,,,,24295,60.0,
,,,0,31,-1,0,0.0969100130080564,0.034359738368000006,,,,,,,,,staircase,401.700786699992,150.0,2.0,72.0,0.034359738368000006,,,,7,0.4724065999907907,0.6906074999860721,,,,1,,,,24295,60.0,
,,,0,32,-1,0,0.0969100130080564,0.027487790694400004,,,,,,,,,staircase,406.6171522999939,180.0,2.0,72.0,0.027487790694400004,,,,6,1.056106300005922,1.3061535000015283,,,,1,,,,24295,60.0,
,,,0,33,-1,0,0.0969100130080564,0.021990232555520003,,,,,,,,,staircase,412.2357820000034,162.0,2.0,72.0,0.021990232555520003,,,,0,1.5454265999869676,1.7452881999925012,,,,0,,,,24295,60.0,
,,,0,34,-1,0,0.0969100130080564,0.027487790694400004,,,,,,,,,staircase,418.00526039999386,150.0,2.0,72.0,0.027487790694400004,,,,1,1.2218988000095123,1.5169844000047306,,,,0,,,,24295,60.0,
,,,0,35,-1,0,0.0969100130080564,0.034359738368000006,,,,,,,,,staircase,423.3287358999951,144.0,2.0,72.0,0.034359738368000006,,,,1,0.7824447000020882,1.0140460000111489,,,,1,,,,24295,60.0,
,,,0,36,-1,0,0.0969100130080564,0.027487790694400004,,,,,,,,,staircase,428.58433369999693,150.0,2.0,72.0,0.027487790694400004,,,,6,1.1571790000016335,1.424501900008181,,,,1,,,,24295,60.0,
,,,0,37,-1,0,0.0969100130080564,0.021990232555520003,,,,,,,,,staircase,433.833587599991,162.0,2.0,72.0,0.021990232555520003,,,,7,1.432698899996467,1.6462043999927118,,,,0,,,,24295,60.0,
,,,0,38,-1,0,0.0969100130080564,0.027487790694400004,,,,,,,,,staircase,439.4870261000033,168.0,2.0,72.0,0.027487790694400004,,,,7,1.645362399998703,1.8808483999891905,,,,0,,,,24295,60.0,
,,,0,39,-1,0,0.0969100130080564,0.034359738368000006,,,,,,,,,staircase,445.47749649999605,126.0,2.0,72.0,0.034359738368000006,,,,7,0.35709720000158995,0.7063836000015726,,,,1,,,,24295,60.0,
,,,0,40,-1,0,0.0969100130080564,0.027487790694400004,,,,,,,,,staircase,450.16810379999515,150.0,2.0,72.0,0.027487790694400004,,,,1,1.9179780000122264,2.1681104000017513,,,,1,,,,24295,60.0,
,,,0,41,-1,0,0.0969100130080564,0.021990232555520003,,,,,,,,,staircase,456.15299960000266,168.0,2.0,72.0,0.021990232555520003,,,,1,1.8182836000050884,2.018406599992886,,,,0,,,,24295,60.0,
,,,0,42,-1,0,0.0969100130080564,0.027487790694400004,,,,,,,,,staircase,462.28932630000054,144.0,2.0,72.0,0.027487790694400004,,,,6,1.2000368000008166,1.4849033999926178,,,,1,,,,24295,60.0,
,,,0,43,-1,0,0.0969100130080564,0.021990232555520003,,,,,,,,,staircase,467.4852666999941,138.0,2.0,72.0,0.021990232555520003,,,,7,0.38872589998936746,0.6579035999893676,,,,1,,,,24295,60.0,
,,,0,44,-1,0,0.0969100130080564,0.017592186044416,,,,,,,,,staircase,472.3015421000018,132.0,2.0,72.0,0.017592186044416,,,,6,1.150065200010431,1.382100700007868,,,,1,,,,24295,60.0,
,,,0,45,-1,0,0.0969100130080564,0.014073748835532801,,,,,,,,,staircase,477.18599579999864,168.0,2.0,72.0,0.014073748835532801,,,,0,0.9803047000023071,1.180271499993978,,,,0,,,,24295,60.0,
,,,0,46,-1,0,0.0969100130080564,0.017592186044416,,,,,,,,,staircase,482.4729140999989,144.0,2.0,72.0,0.017592186044416,,,,6,1.235050700008287,1.467885500009288,,,,0,,,,24295,60.0,
,,,0,47,-1,0,0.0969100130080564,0.021990232555520003,,,,,,,,,staircase,487.67479099999764,168.0,2.0,72.0,0.021990232555520003,,,,1,1.2449755999987246,1.44279450000613,,,,0,,,,24295,60.0,
,,,0,48,-1,0,0.0969100130080564,0.027487790694400004,,,,,,,,,staircase,493.94989999999234,132.0,2.0,72.0,0.027487790694400004,,,,7,1.4151273000024958,1.6292586000054143,,,,1,,,,24295,60.0,
,,,0,49,-1,0,0.0969100130080564,0.021990232555520003,,,,,,,,,staircase,499.083885,138.0,2.0,72.0,0.021990232555520003,,,,1,1.727388700004667,1.960982000004151,,,,0,,,,24295,60.0,
,,,0,50,-1,0,0.0969100130080564,0.027487790694400004,,,,,,,,,staircase,504.65479230000346,156.0,2.0,72.0,0.027487790694400004,,,,6,1.427593300002627,1.6276662000018405,,,,1,,,,24295,60.0,
,,,0,51,-1,0,0.0969100130080564,0.021990232555520003,,,,,,,,,staircase,510.1919268999918,168.0,2.0,72.0,0.021990232555520003,,,,0,1.0989434999937657,1.3787874999979977,,,,0,,,,24295,60.0,
,,,0,52,-1,0,0.0969100130080564,0.027487790694400004,,,,,,,,,staircase,516.2664224999899,156.0,2.0,72.0,0.027487790694400004,,,,1,2.1926766000106,2.3957100000116043,,,,0,,,,24295,60.0,
,,,0,53,-1,0,0.0969100130080564,0.034359738368000006,,,,,,,,,staircase,522.5710222999915,168.0,2.0,72.0,0.034359738368000006,,,,1,0.6576237999979639,0.8911244000046281,,,,1,,,,24295,60.0,
,,,0,54,-1,0,0.0969100130080564,0.027487790694400004,,,,,,,,,staircase,527.5734003999969,162.0,2.0,72.0,0.027487790694400004,,,,7,1.0635359000007156,1.3805228999990504,,,,1,,,,24295,60.0,
,,,0,55,-1,0,0.0969100130080564,0.021990232555520003,,,,,,,,,staircase,532.9761177000037,132.0,2.0,72.0,0.021990232555520003,,,,6,1.1905867000023136,1.4380865999992238,,,,1,,,,24295,60.0,
,,,0,56,-1,0,0.0969100130080564,0.017592186044416,,,,,,,,,staircase,538.4497776999924,138.0,2.0,72.0,0.017592186044416,,,,1,1.1906966999958968,1.3920184999878984,,,,1,,,,24295,60.0,
,,,0,57,-1,0,0.0969100130080564,0.014073748835532801,,,,,,,,,staircase,543.4514698999992,126.0,2.0,72.0,0.014073748835532801,,,,1,1.616968000002089,1.8505796999961603,,,,0,,,,24295,60.0,
,,,0,58,-1,0,0.0969100130080564,0.017592186044416,,,,,,,,,staircase,548.7046292000014,162.0,2.0,72.0,0.017592186044416,,,,7,1.3435456000006525,1.5103740000049584,,,,0,,,,24295,60.0,
,,,0,59,-1,0,0.0969100130080564,0.021990232555520003,,,,,,,,,staircase,554.2262438999896,132.0,2.0,72.0,0.021990232555520003,,,,0,1.069159499995294,1.2884593999915523,,,,0,,,,24295,60.0,
,,,0,60,-1,0,0.0969100130080564,0.027487790694400004,,,,,,,,,staircase,559.6377833000006,180.0,2.0,72.0,0.027487790694400004,,,,7,1.3061038000014378,1.5219148000032874,,,,0,,,,24295,60.0,
,,,0,61,-1,0,0.0969100130080564,0.034359738368000006,,,,,,,,,staircase,565.4845354999998,126.0,2.0,72.0,0.034359738368000006,,,,1,1.1951611999975285,1.3787172000011196,,,,1,,,,24295,60.0,
,,,0,62,-1,0,0.0969100130080564,0.027487790694400004,,,,,,,,,staircase,570.2706846999936,174.0,2.0,72.0,0.027487790694400004,,,,6,1.3617455999919912,1.5780672999972012,,,,0,,,,24295,60.0,
,,,0,63,-1,0,0.0969100130080564,0.034359738368000006,,,,,,,,,staircase,576.0592956999899,174.0,2.0,72.0,0.034359738368000006,,,,7,0.6386339000018779,0.8355821000004653,,,,1,,,,24295,60.0,
,,,0,64,-1,0,0.0969100130080564,0.027487790694400004,,,,,,,,,staircase,581.6334372999991,162.0,2.0,72.0,0.027487790694400004,,,,1,0.812424399991869,1.0270744000008563,,,,1,,,,24295,60.0,
,,,0,65,-1,0,0.0969100130080564,0.021990232555520003,,,,,,,,,staircase,586.6679189999995,156.0,2.0,72.0,0.021990232555520003,,,,0,1.277056699997047,1.5294386000023223,,,,0,,,,24295,60.0,
,,,0,66,-1,0,0.0969100130080564,0.027487790694400004,,,,,,,,,staircase,592.1062245999929,132.0,2.0,72.0,0.027487790694400004,,,,7,1.5968690000008792,1.7632121999922674,,,,0,,,,24295,60.0,
,,,0,67,-1,0,0.0969100130080564,0.034359738368000006,,,,,,,,,staircase,597.3764773000003,156.0,2.0,72.0,0.034359738368000006,,,,0,0.3861131000012392,0.5562143999995897,,,,1,,,,24295,60.0,
,,,0,68,-1,0,0.0969100130080564,0.027487790694400004,,,,,,,,,staircase,602.2202348999999,150.0,2.0,72.0,0.027487790694400004,,,,1,0.9375173000007635,1.1866301000118256,,,,1,,,,24295,60.0,
,,,0,69,-1,0,0.0969100130080564,0.021990232555520003,,,,,,,,,staircase,607.217307400002,180.0,2.0,72.0,0.021990232555520003,,,,6,2.1477307000022847,2.2978710000024876,,,,1,,,,24295,60.0,
,,,0,-1,-1,0,,,materials/instructions\11_session_start.png,613.8529987999937,626.9002848999953,0,12.895471799987718,13.045617799987667,0.021212899999227375,13.05358750000596,,,,,,,,,,,,,,,,,,,,24295,60.0,
,,,0,-1,-1,0,,,,,,,,,,,,,,,,,,,,,,,,,,,0.024541099531960323,,,24295,60.0,
152,152,-45,0,0,0,0,,,,,,,,,,,session,626.9177954999905,156.0,2.0,72.0,0.024541099531960323,2,2.3086082999943756,2.6411634999967646,1,0.961994199999026,1.1953706999920541,0,1.9953940000123112,2.1122367000061786,,,72.0,51.0,24295,60.0,
-152,-152,45,0,1,1,14,,,,,,,,,,,session,638.9761894999974,126.0,2.0,72.0,0.024541099531960323,3,1.3267827999952715,1.594483399996534,7,1.2404349999997066,1.4570505999872694,1,2.0094290999986697,2.274120399990352,,,69.0,54.0,24295,60.0,
-152,152,90,0,2,2,7,,,,,,,,,,,session,649.9198962999944,126.0,2.0,72.0,0.024541099531960323,5,2.1416962999937823,2.392235499995877,1,1.4308634000044549,1.7143575999944005,0,0.7972197000053711,1.1308055999979842,,,51.0,63.0,24295,60.0,
152,-152,90,0,3,3,11,,,,,,,,,,,session,660.6087830000033,126.0,2.0,72.0,0.024541099531960323,4,2.094425500006764,2.383562899995013,6,2.3392206999997143,2.4717115000094054,0,1.1786032999953022,1.3615921000018716,,,60.0,51.0,24295,60.0,
152,152,45,0,4,4,2,,,,,,,,,,,session,672.2554290999979,180.0,2.0,72.0,0.024541099531960323,3,1.9612084999971557,2.2617628000007244,1,1.765851999996812,1.99866209999891,0,0.9303919999947539,1.1798591999977361,,,72.0,63.0,24295,60.0,
-152,-152,0,0,5,5,13,,,,,,,,,,,session,684.4108548999939,150.0,2.0,72.0,0.024541099531960323,5,2.1529267000005348,2.398345200010226,6,1.611066600002232,1.7941720000089845,0,1.9320184999960475,2.164379399997415,,,51.0,63.0,24295,60.0,
152,-152,0,0,6,6,9,,,,,,,,,,,session,696.67330699999,150.0,2.0,72.0,0.024541099531960323,4,1.8176268999959575,2.084302499992191,0,0.682100599995465,0.934258499997668,0,1.4195268000039505,1.6030898000026355,,,69.0,60.0,24295,60.0,
-152,152,-45,0,7,7,4,,,,,,,,,,,session,707.3970620000036,168.0,2.0,72.0,0.024541099531960323,5,1.5714511999976821,1.7570398999960162,6,0.6796637999941595,0.8804304999939632,0,1.032901899990975,1.248094199996558,,,69.0,48.0,24295,60.0,
-152,152,0,0,8,8,5,,,,,,,,,,,session,717.872932600003,174.0,2.0,72.0,0.024541099531960323,2,1.2596983999974327,1.6099719000048935,0,1.113478800005396,1.3970583000045735,1,1.4096898999996483,1.627039999992121,,,69.0,60.0,24295,60.0,
152,152,90,0,9,9,3,,,,,,,,,,,session,729.028462000002,174.0,2.0,72.0,0.024541099531960323,5,1.9826707000029273,2.1623462999996264,7,1.0777622999885352,1.3111762999906205,0,0.7124662999995053,0.9797331000008853,,,48.0,60.0,24295,60.0,
152,-152,-45,0,10,10,8,,,,,,,,,,,session,739.9212542000023,138.0,2.0,72.0,0.024541099531960323,4,1.5617171000048984,1.7952318000025116,1,1.4638017999968724,1.6638940999982879,1,1.7656947000068612,2.0159058999997796,,,63.0,51.0,24295,60.0,
-152,152,45,0,11,11,6,,,,,,,,,,,session,751.0445898999897,144.0,2.0,72.0,0.024541099531960323,3,1.4890015999990283,1.7271368999936385,7,1.1800625999894692,1.3770502999977907,0,0.7746000000042841,1.0797089999978198,,,69.0,72.0,24295,60.0,
152,-152,45,0,12,12,10,,,,,,,,,,,session,761.5097249999963,138.0,2.0,72.0,0.024541099531960323,4,1.3589157999958843,1.5422730999998748,7,1.3477136000001337,1.5303424000012456,1,1.2136374999972759,1.4957949000090593,,,63.0,66.0,24295,60.0,
152,152,0,0,13,13,1,,,,,,,,,,,session,771.9932233,174.0,2.0,72.0,0.024541099531960323,5,1.1237169000087306,1.3400762000092072,7,0.9258954000106314,1.163156299997354,1,1.0773965999978827,1.3945583000022452,,,51.0,57.0,24295,60.0,
-152,-152,-45,0,14,14,12,,,,,,,,,,,session,782.0881950999901,150.0,2.0,72.0,0.024541099531960323,3,1.8406205000064801,2.1095864000089932,0,1.4469465000001946,1.7301960000040708,0,0.6953883999958634,0.9776077999995323,,,57.0,54.0,24295,60.0,
-152,-152,90,0,15,15,15,,,,,,,,,,,session,792.7085328999965,150.0,2.0,72.0,0.024541099531960323,3,1.2756705000065267,1.558872399997199,6,1.3472573999897577,1.5472368999908213,1,0.5852154000021983,0.805165500001749,,,69.0,63.0,24295,60.0,
-152,-152,45,1,0,16,14,,,,,,,,,,,session,802.7577801000007,174.0,2.0,72.0,0.024541099531960323,5,2.1460998999973526,2.346315999995568,1,1.1273641000007046,1.3285988999996334,0,0.9633458000025712,1.1975181000016164,,,72.0,54.0,24295,60.0,
-152,152,90,1,1,17,7,,,,,,,,,,,session,814.0926107999985,168.0,2.0,72.0,0.024541099531960323,4,1.4827540000114823,1.731849300005706,1,0.6357161000050837,0.8917664000036893,0,0.6086790999979712,0.013683999990462326,,,57.0,63.0,24295,60.0,
-152,-152,-45,1,2,18,12,,,,,,,,,,,session,823.5906365999981,168.0,2.0,72.0,0.024541099531960323,3,1.2296652000077302,1.529794000001857,1,1.1615750000055414,1.361680100002559,1,0.8951933999924222,1.1121317999932216,,,66.0,72.0,24295,60.0,
152,-152,-45,1,3,19,8,,,,,,,,,,,session,834.1571428000025,126.0,2.0,72.0,0.024541099531960323,5,1.8106113000103505,2.011819400009699,6,0.8097022000001743,0.9773542000039015,0,0.9527404999971623,1.1920844999986002,,,69.0,66.0,24295,60.0,
152,-152,-45,1,3,19,8,,,materials/instructions\12_break.png,844.2081288999907,862.8434524999902,0,18.401699800000642,18.633335499995155,0.02500039999722503,18.64152629999444,,,,,,,,,,,,,,,,,,,,24295,60.0,
-152,152,-45,1,4,20,4,,,,,,,,,,,session,862.8594440000015,144.0,2.0,72.0,0.024541099531960323,2,1.1827548000001116,1.532307600005879,1,1.1638869000016712,1.364893200006918,1,0.9148678999918047,1.0775596000021324,,,60.0,69.0,24295,60.0,
-152,-152,0,1,5,21,13,,,,,,,,,,,session,873.3407637999917,150.0,2.0,72.0,0.024541099531960323,5,1.6120279000024311,1.7778570000082254,6,1.1142350999871269,1.2641607999976259,0,0.8962583000102313,1.0963820000033593,,,57.0,66.0,24295,60.0,
152,152,90,1,6,22,3,,,,,,,,,,,session,883.4612363999913,156.0,2.0,72.0,0.024541099531960323,3,1.6566137999907369,1.9229345999920042,6,1.647746599992388,1.8299530999938725,0,0.8455308999982662,0.010863799994695,,,72.0,60.0,24295,60.0,
152,-152,0,1,7,23,9,,,,,,,,,,,session,894.4108912999945,138.0,2.0,72.0,0.024541099531960323,5,1.3069531000073766,1.490375599998515,6,0.8802811999921687,1.031786399995326,0,1.237288999996963,1.437479699990945,,,57.0,60.0,24295,60.0,
152,152,0,1,8,24,1,,,,,,,,,,,session,904.0781886999903,156.0,2.0,72.0,0.024541099531960323,5,1.339917699995567,1.4908783999999287,0,0.6562133999977959,0.8354431999905501,1,0.9942190000001574,1.2413521999988006,,,72.0,48.0,24295,60.0,
-152,152,45,1,9,25,6,,,,,,,,,,,session,913.739070399999,132.0,2.0,72.0,0.024541099531960323,2,2.0869895000068936,2.3545974000007845,7,1.143137300008675,1.4102283000102034,1,0.708955900001456,0.8757774999976391,,,66.0,72.0,24295,60.0,
152,-152,45,1,10,26,10,,,,,,,,,,,session,924.3442090000026,132.0,2.0,72.0,0.024541099531960323,4,1.2142872999975225,1.34769999999844,7,1.3055005999922287,1.4326579999906244,1,1.3058814000105485,1.507448000003933,,,69.0,51.0,24295,60.0,
152,152,-45,1,11,27,0,,,,,,,,,,,session,934.2915225000033,150.0,2.0,72.0,0.024541099531960323,3,1.5797272999916459,1.812927099992521,1,1.9586949999938952,2.192202999998699,0,0.7166440000000875,0.999504599996726,,,63.0,60.0,24295,60.0,
-152,152,0,1,12,28,5,,,,,,,,,,,session,945.3123446999962,162.0,2.0,72.0,0.024541099531960323,2,1.275811799991061,1.4915996999916388,0,0.9427001000003656,1.1428906000073766,1,0.5702605999977095,0.7485650000016904,,,54.0,69.0,24295,60.0,
152,-152,90,1,13,29,11,,,,,,,,,,,session,954.9204890999972,168.0,2.0,72.0,0.024541099531960323,4,1.2967173000070034,1.497328400000697,6,1.3179575999965891,1.4513964999932796,1,0.6776478000101633,0.8785468999994919,,,57.0,54.0,24295,60.0,
152,152,45,1,14,30,2,,,,,,,,,,,session,965.0744981000025,156.0,2.0,72.0,0.024541099531960323,3,1.712900400001672,1.9129913000069791,1,0.5969437000021571,0.6972880000103032,0,0.8799107000086224,1.09672970000247,,,48.0,60.0,24295,60.0,
-152,-152,90,1,15,31,15,,,,,,,,,,,session,974.6309465999948,156.0,2.0,72.0,0.024541099531960323,3,1.1423743000050308,1.3568250999960583,6,1.0119069999927888,1.1984593999950448,1,2.0939305999927456,2.310894299997017,,,72.0,54.0,24295,60.0,
-152,-152,0,2,0,32,13,,,,,,,,,,,session,986.2245438999962,156.0,2.0,72.0,0.024541099531960323,2,1.7698569999920437,1.9867808999988483,7,0.6086012000014307,0.7768948000011733,0,1.7432122000027448,1.9432450000022072,,,51.0,54.0,24295,60.0,
152,-152,-45,2,1,33,8,,,,,,,,,,,session,996.7322322999971,138.0,2.0,72.0,0.024541099531960323,4,1.0715246999898227,1.2244374000001699,1,1.4995958000072278,1.6660147000075085,6,1.9806563000020105,2.13065189999179,,,69.0,57.0,24295,60.0,
-152,-152,45,2,2,34,14,,,,,,,,,,,session,1008.291387099991,162.0,2.0,72.0,0.024541099531960323,3,1.2977571000083117,1.547221000000718,7,0.943924799998058,1.1274583999911556,1,0.8439156999957049,1.0774635999987368,,,63.0,51.0,24295,60.0,
-152,-152,90,2,3,35,15,,,,,,,,,,,session,1018.097497099996,156.0,2.0,72.0,0.024541099531960323,3,0.6364226999867242,0.9232997999934014,6,1.2447981000004802,1.4114914999954635,1,1.7950661999930162,1.9596363000018755,,,72.0,63.0,24295,60.0,
152,152,0,2,4,36,1,,,,,,,,,,,session,1029.3227240999986,168.0,2.0,72.0,0.024541099531960323,5,1.6455879999994067,1.7623557999904733,1,1.3781480000034207,1.526989300007699,0,1.329716800013557,1.5132460000022547,,,54.0,63.0,24295,60.0,
-152,152,45,2,5,37,6,,,,,,,,,,,session,1040.3494652999943,156.0,2.0,72.0,0.024541099531960323,2,2.069721699997899,2.3386942999932216,7,0.8925304000003962,1.0739353999961168,6,1.9821893999906024,2.1136088999919593,,,48.0,60.0,24295,60.0,
152,152,90,2,6,38,3,,,,,,,,,,,session,1052.4251684999908,180.0,2.0,72.0,0.024541099531960323,2,1.84645840000303,2.0973123000003397,1,0.47587160000693984,0.6428784000017913,0,0.8110012000106508,1.010506799997529,,,66.0,69.0,24295,60.0,
152,-152,45,2,7,39,10,,,,,,,,,,,session,1062.8817579000024,180.0,2.0,72.0,0.024541099531960323,4,1.0587986999889836,1.2566254999983357,7,1.0794008000084432,1.249058800007333,6,1.577436100007617,1.7759254000120563,,,66.0,57.0,24295,60.0,
152,-152,45,2,7,39,10,,,materials/instructions\12_break.png,1074.2219487999973,1093.3554909999948,0,18.94799349999812,19.13155619999452,0.01960030000191182,19.139001100003952,,,,,,,,,,,,,,,,,,,,24295,60.0,
152,-152,0,2,8,40,9,,,,,,,,,,,session,1093.371476100001,180.0,2.0,72.0,0.024541099531960323,3,1.5086450000089826,1.75857520000136,1,0.8026080999989063,0.9334400000079768,0,0.8177728000009665,1.0152292999991914,,,60.0,72.0,24295,60.0,
-152,152,90,2,9,41,7,,,,,,,,,,,session,1103.7460827000032,144.0,2.0,72.0,0.024541099531960323,2,0.747969899995951,1.022379500005627,6,0.8754372999974294,1.0091023999993922,1,1.0304497000033734,1.292579000000842,,,51.0,51.0,24295,60.0,
152,152,-45,2,10,42,0,,,,,,,,,,,session,1112.6404205,138.0,2.0,72.0,0.024541099531960323,5,0.7196712000004482,0.8839268000010634,1,0.9129782000090927,1.1471823000028962,1,0.682043299995712,0.981280499996501,,,72.0,57.0,24295,60.0,
-152,152,0,2,11,43,5,,,,,,,,,,,session,1121.5758008999983,174.0,2.0,72.0,0.024541099531960323,4,1.3701765000005253,1.5869802000088384,7,1.363757999992231,1.547285799999372,0,1.1083555999939563,1.353989699986414,,,69.0,60.0,24295,60.0,
-152,-152,-45,2,12,44,12,,,,,,,,,,,session,1132.5893109000026,174.0,2.0,72.0,0.024541099531960323,3,0.8627216999884695,1.0962700999953086,1,1.2671171000110917,1.5151912000001175,1,1.7960813999961829,1.9801420000003418,,,48.0,66.0,24295,60.0,
152,-152,90,2,13,45,11,,,,,,,,,,,session,1143.4613736000028,174.0,2.0,72.0,0.024541099531960323,4,1.0765769999998156,1.2432493999949656,1,1.2977466999873286,1.5145397999876877,1,0.5044520000083139,0.7267837999970652,,,51.0,57.0,24295,60.0,
152,152,45,2,14,46,2,,,,,,,,,,,session,1153.093549199999,138.0,2.0,72.0,0.024541099531960323,5,0.989916299993638,1.1573645000025863,7,0.6929928000026848,0.8285090000135824,6,1.6132821000064723,1.7638344000006327,,,72.0,60.0,24295,60.0,
-152,152,-45,2,15,47,4,,,,,,,,,,,session,1163.21012589999,144.0,2.0,72.0,0.024541099531960323,4,1.3135909999982687,1.5473819999897387,7,0.4644007999886526,0.6153004999941913,0,0.6978875999921001,0.931351099992753,,,69.0,60.0,24295,60.0,
152,-152,45,3,0,48,10,,,,,,,,,,,session,1172.2994957999908,144.0,2.0,72.0,0.024541099531960323,4,0.9021554000064498,1.0558942000061506,7,1.0919219000061275,1.2752505999960704,1,1.3074429999978747,1.5225934000045527,,,63.0,63.0,24295,60.0,
152,152,45,3,1,49,2,,,,,,,,,,,session,1182.6416462999914,162.0,2.0,72.0,0.024541099531960323,3,1.5126361000002362,1.7962312000017846,6,2.1817128999973647,2.347465500002727,0,1.3262974000099348,1.5429100000037579,,,48.0,69.0,24295,60.0,
-152,152,0,3,2,50,5,,,,,,,,,,,session,1194.4161452999979,138.0,2.0,72.0,0.024541099531960323,5,1.6759176999912597,1.8064404999895487,6,1.4609745000052499,1.6446161000058055,0,0.9131037000042852,1.1272451999975601,,,69.0,51.0,24295,60.0,
-152,152,90,3,3,51,7,,,,,,,,,,,session,1205.2777111999894,144.0,2.0,72.0,0.024541099531960323,3,1.1315259000111837,1.3628985000104876,1,1.1300639000110095,1.3299766999989515,1,0.46465869998792186,0.683311099986895,,,54.0,69.0,24295,60.0,
152,152,0,3,4,52,1,,,,,,,,,,,session,1214.5521500999894,156.0,2.0,72.0,0.024541099531960323,5,1.7125072999915574,1.845853899998474,0,1.093904499997734,1.29724260000512,1,1.7802759000041988,2.0149767999973847,,,60.0,57.0,24295,60.0,
-152,-152,90,3,5,53,15,,,,,,,,,,,session,1225.7120213000017,138.0,2.0,72.0,0.024541099531960323,3,1.2794982000050368,1.5630185000045458,6,1.1168797000136692,1.252469300001394,1,2.133328600000823,2.3677202999970177,,,51.0,69.0,24295,60.0,
152,-152,90,3,6,54,11,,,,,,,,,,,session,1236.649132199993,150.0,2.0,72.0,0.024541099531960323,4,1.3112314000027254,1.5111674999934621,1,0.9764309000020148,1.196029600003385,0,0.8783387000003131,1.1455881000001682,,,57.0,72.0,24295,60.0,
152,-152,-45,3,7,55,8,,,,,,,,,,,session,1246.6788690999965,162.0,2.0,72.0,0.024541099531960323,5,1.8568107999890344,1.972509799990803,1,1.4473012999951607,1.5807731999957468,0,1.7679153000062797,1.9843335000041407,,,69.0,66.0,24295,60.0,
-152,152,45,3,8,56,6,,,,,,,,,,,session,1258.6325141999987,144.0,2.0,72.0,0.024541099531960323,4,2.6590222000086214,2.7921613000071375,0,1.3420232999924337,1.5277463999955216,0,1.7954978999914601,2.014318599991384,,,66.0,54.0,24295,60.0,
-152,-152,0,3,9,57,13,,,,,,,,,,,session,1270.8312908999942,162.0,2.0,72.0,0.024541099531960323,5,1.9111774000048172,2.0779654000070877,1,0.5304713000077754,0.716252500002156,0,2.0153515999991214,2.232359500005259,,,69.0,48.0,24295,60.0,
152,152,90,3,10,58,3,,,,,,,,,,,session,1281.9669876999978,138.0,2.0,72.0,0.024541099531960323,3,2.0319308000034653,2.2650452999951085,6,1.4419834000000264,1.608582300003036,0,4.327049699990312,4.512892300001113,,,57.0,66.0,24295,60.0,
-152,-152,45,3,11,59,14,,,,,,,,,,,session,1296.4130932999979,180.0,2.0,72.0,0.024541099531960323,2,1.446017700000084,1.6305718999938108,6,1.2134190999931889,1.4470984000072349,0,0.9319219000026351,1.174064399994677,,,63.0,48.0,24295,60.0,
-152,-152,45,3,11,59,14,,,materials/instructions\12_break.png,1306.992519099993,1334.9739795999922,0,27.777421299993875,27.979199299996253,0.010059699998237193,27.98510740000347,,,,,,,,,,,,,,,,,,,,24295,60.0,
152,152,-45,3,12,60,0,,,,,,,,,,,session,1334.987343300003,150.0,2.0,72.0,0.024541099531960323,5,0.8379064000037033,1.0215419000014663,1,0.9440026999945985,1.1610203000018373,1,0.6792624999943655,0.9612350999959745,,,54.0,54.0,24295,60.0,
152,-152,0,3,13,61,9,,,,,,,,,,,session,1343.895961599992,150.0,2.0,72.0,0.024541099531960323,4,1.2816783000016585,1.4505596999952104,0,0.5991127000015695,0.8094934999971883,0,1.321359499997925,1.5667797999922186,,,57.0,72.0,24295,60.0,
-152,152,-45,3,14,62,4,,,,,,,,,,,session,1353.8407850999938,168.0,2.0,72.0,0.024541099531960323,3,1.3768968999938807,1.6911497999972198,0,0.43034500000067055,0.6310366999969119,0,1.3685970999940764,1.5842038999981014,,,57.0,72.0,24295,60.0,
-152,-152,-45,3,15,63,12,,,,,,,,,,,session,1364.1660084000032,138.0,2.0,72.0,0.024541099531960323,4,1.5830794999928912,1.797415799999726,1,1.6977188000018941,1.8979103000019677,0,1.4041002000012668,1.6381750000000466,,,60.0,66.0,24295,60.0,
152,-152,0,4,0,64,9,,,,,,,,,,,session,1375.374241700003,126.0,2.0,72.0,0.024541099531960323,5,1.6026143999915803,1.7869824999943376,7,0.3569268999999622,0.54034840001259,0,1.0264851999963867,1.261367800005246,,,72.0,54.0,24295,60.0,
-152,152,90,4,1,65,7,,,,,,,,,,,session,1384.6969948999904,138.0,2.0,72.0,0.024541099531960323,3,1.4778779999905964,1.7947640999918804,0,0.812894700007746,0.9791274000017438,0,2.2151194000034593,2.373162999996566,,,63.0,66.0,24295,60.0,
-152,152,0,4,2,66,5,,,,,,,,,,,session,1395.7463858999981,132.0,2.0,72.0,0.024541099531960323,3,1.37357239999983,1.5905314999981783,6,1.8317351000005146,2.031748299996252,0,0.6435990999889327,0.8942243999917991,,,48.0,60.0,24295,60.0,
152,152,0,4,3,67,1,,,,,,,,,,,session,1406.2770080999908,132.0,2.0,72.0,0.024541099531960323,5,1.083407600002829,1.233506699994905,0,0.7105919000023277,0.9249536999996053,1,0.7944046999909915,0.9778717000008328,,,69.0,54.0,24295,60.0,
152,-152,45,4,4,68,10,,,,,,,,,,,session,1415.116486400002,168.0,2.0,72.0,0.024541099531960323,4,0.45335769999655895,0.6536332999967271,7,1.230677100000321,1.4654014999978244,1,1.1417386000102852,1.374987000002875,,,69.0,63.0,24295,60.0,
-152,-152,-45,4,5,69,12,,,,,,,,,,,session,1425.6307171999943,144.0,2.0,72.0,0.024541099531960323,5,1.3456091999978526,1.480788599990774,1,2.1961458000005223,2.362849600001937,0,5.23470929999894,5.384188500000164,,,63.0,54.0,24295,60.0,
-152,-152,45,4,6,70,14,,,,,,,,,,,session,1440.6904283999902,150.0,2.0,72.0,0.024541099531960323,5,1.7025025000039022,1.888808700008667,6,0.631155300012324,0.7311470999993617,0,1.4986929999868153,1.665508599995519,,,54.0,48.0,24295,60.0,
-152,152,45,4,7,71,6,,,,,,,,,,,session,1450.9810834999953,126.0,2.0,72.0,0.024541099531960323,2,1.497000699993805,1.6969054999935906,7,1.144843400004902,1.2970576000079745,1,2.3759288000001106,2.5033432000054745,,,69.0,57.0,24295,60.0,
-152,-152,0,4,8,72,13,,,,,,,,,,,session,1462.1238555000018,174.0,2.0,72.0,0.024541099531960323,4,0.9774823999905493,1.127424099991913,6,1.2490512000076706,1.4311487000086345,0,4.6471743999863975,4.845211199994083,,,51.0,69.0,24295,60.0,
152,152,-45,4,9,73,0,,,,,,,,,,,session,1476.36556559999,150.0,2.0,72.0,0.024541099531960323,5,0.4587979999923846,0.6776094999950146,1,1.0742872999981046,1.2919626999937464,1,2.047179499990307,2.1975431999890134,,,69.0,48.0,24295,60.0,
-152,152,-45,4,10,74,4,,,,,,,,,,,session,1486.4300973999925,162.0,2.0,72.0,0.024541099531960323,5,2.1153971000021556,2.246513500009314,0,2.829799600003753,3.0135857999994187,0,2.0181691000034334,2.2018865999998525,,,54.0,66.0,24295,60.0,
152,-152,-45,4,11,75,8,,,,,,,,,,,session,1500.049490099991,162.0,2.0,72.0,0.024541099531960323,5,1.7815652000135742,1.928603500011377,1,1.684472699998878,1.8846303000027547,0,1.9433758999948623,2.1433198000013363,,,51.0,63.0,24295,60.0,
152,152,45,4,12,76,2,,,,,,,,,,,session,1512.0940277999907,174.0,2.0,72.0,0.024541099531960323,4,1.2094908999861218,1.4432437999930698,0,1.4318577999947593,1.632042299999739,0,2.2678354999952717,2.4513876999990316,,,57.0,60.0,24295,60.0,
152,-152,90,4,13,77,11,,,,,,,,,,,session,1523.919398099999,180.0,2.0,72.0,0.024541099531960323,3,1.5485048000118695,1.7865049000101862,6,1.7409970000007888,1.9100413999985904,0,2.8424296000011964,3.076026800001273,,,66.0,48.0,24295,60.0,
-152,-152,90,4,14,78,15,,,,,,,,,,,session,1537.2147423999995,174.0,2.0,72.0,0.024541099531960323,3,1.2903593000082765,1.5410096999985399,7,1.2282850000046892,1.428407800005516,0,1.5276688000012655,1.76216490000661,,,51.0,54.0,24295,60.0,
152,152,90,4,15,79,3,,,,,,,,,,,session,1548.0527770999906,168.0,2.0,72.0,0.024541099531960323,4,1.0247279000031995,1.2050562000076752,1,1.247875800007023,1.4637280000024475,1,1.1749069999932544,1.3417301000008592,,,54.0,51.0,24295,60.0,
152,152,90,4,15,79,3,,,materials/instructions\12_break.png,1558.642640799997,1592.1499722000008,0,33.28836949999095,33.505200199986575,0.019813800012343563,33.51280970001244,,,,,,,,,,,,,,,,,,,,24295,60.0,
-152,152,45,5,0,80,6,,,,,,,,,,,session,1592.1654257999908,138.0,2.0,72.0,0.024541099531960323,2,0.9492134000029182,1.198100699999486,7,0.9553158999915468,1.3911932000046363,1,1.1739543000003323,1.3574165000027278,,,66.0,54.0,24295,60.0,
152,-152,90,5,1,81,11,,,,,,,,,,,session,1602.3658391999925,168.0,2.0,72.0,0.024541099531960323,5,1.2295300999976462,1.4294978999969317,1,0.7464923999941675,0.9479512999969302,0,0.7662983000045642,1.0165293000027305,,,63.0,60.0,24295,60.0,
-152,152,0,5,2,82,5,,,,,,,,,,,session,1612.0694011000014,180.0,2.0,72.0,0.024541099531960323,4,1.2384939000039594,1.4544343000015942,7,1.045989099991857,1.212214999992284,0,2.0949875000078464,2.312103100004606,,,57.0,48.0,24295,60.0,
152,152,90,5,3,83,3,,,,,,,,,,,session,1623.4117662999925,126.0,2.0,72.0,0.024541099531960323,5,1.4445458999980474,1.5955573999963235,6,1.7656320999958552,1.9483182999974815,0,2.61478740000166,2.815541199990548,,,57.0,48.0,24295,60.0,
-152,-152,45,5,4,84,14,,,,,,,,,,,session,1635.0697706999927,168.0,2.0,72.0,0.024541099531960323,3,1.4253276999952504,1.671528999999282,0,0.5945707999926526,0.8310152000049129,0,2.4978007999889087,2.730275599999004,,,66.0,51.0,24295,60.0,
152,-152,-45,5,5,85,8,,,,,,,,,,,session,1646.7824574999977,138.0,2.0,72.0,0.024541099531960323,4,1.028727599987178,1.2455762999888975,1,0.9291468000010354,1.1462163999967743,1,0.9301282000087667,1.1443907000066247,,,51.0,66.0,24295,60.0,
-152,-152,-45,5,6,86,12,,,,,,,,,,,session,1656.0334567999962,156.0,2.0,72.0,0.024541099531960323,5,1.413287199990009,1.5470006999967154,7,0.6237525999895297,0.7887546999991173,0,3.1266481000056956,3.328154300004826,,,48.0,57.0,24295,60.0,
-152,152,90,5,7,87,7,,,,,,,,,,,session,1667.5485247999895,156.0,2.0,72.0,0.024541099531960323,4,1.4111340000090422,1.5779417000012472,0,1.299140000002808,1.4993165000050794,0,0.9144036000070628,1.0647604999976465,,,54.0,51.0,24295,60.0,
152,-152,45,5,8,88,10,,,,,,,,,,,session,1677.5022632000037,168.0,2.0,72.0,0.024541099531960323,4,0.8723220999963814,1.0247124000015901,7,0.9352637999982107,1.1065866999997525,1,1.5434814000036567,1.810175500009791,,,57.0,69.0,24295,60.0,
-152,152,-45,5,9,89,4,,,,,,,,,,,session,1687.8114174999937,144.0,2.0,72.0,0.024541099531960323,3,1.2607081000023754,1.5127647000044817,6,1.4152525999961654,1.616232400003355,0,3.937213700002758,4.1521993999922415,,,51.0,51.0,24295,60.0,
152,-152,0,5,10,90,9,,,,,,,,,,,session,1700.6376103999937,162.0,2.0,72.0,0.024541099531960323,5,1.5366523999982746,1.6863024000049336,0,1.824930000002496,1.9750282999884803,0,1.5785376999992877,1.7470729000051506,,,48.0,72.0,24295,60.0,
-152,-152,0,5,11,91,13,,,,,,,,,,,session,1712.217505499997,180.0,2.0,72.0,0.024541099531960323,4,1.2860963999992236,1.437347699989914,6,0.5452539999969304,0.6615285000007134,0,2.36812590000045,2.5516715999983717,,,57.0,57.0,24295,60.0,
152,152,-45,5,12,92,0,,,,,,,,,,,session,1723.2366726000037,156.0,2.0,72.0,0.024541099531960323,4,1.4135155999974813,1.5467913000029512,6,1.7086090999946464,1.8099520999967353,0,5.728365600007237,5.928156300011324,,,63.0,66.0,24295,60.0,
152,152,45,5,13,93,2,,,,,,,,,,,session,1738.8316819000029,132.0,2.0,72.0,0.024541099531960323,5,0.7431643000018084,0.8599345999973593,7,0.42521480000868905,0.559315799997421,6,1.8277772000001278,1.977399499999592,,,60.0,69.0,24295,60.0,
152,152,0,5,14,94,1,,,,,,,,,,,session,1748.0387870999984,180.0,2.0,72.0,0.024541099531960323,5,1.707710100003169,1.8073368000041228,0,1.9985604000103194,2.212821900000563,1,0.6610423000092851,0.8445597000099951,,,66.0,51.0,24295,60.0,
-152,-152,90,5,15,95,15,,,,,,,,,,,session,1759.931861399993,126.0,2.0,72.0,0.024541099531960323,2,3.2649077999958536,3.481543799993233,6,2.082874699990498,2.266925000003539,0,1.66032229999837,1.9057095000025583,,,48.0,66.0,24295,60.0,
-152,-152,45,6,0,96,14,,,,,,,,,,,session,1773.1111438999942,138.0,2.0,72.0,0.024541099531960323,5,1.926588599992101,2.11001540000143,1,2.74580689999857,2.8624520000012126,0,0.803707500002929,1.0558686000003945,,,66.0,60.0,24295,60.0,
152,-152,-45,6,1,97,8,,,,,,,,,,,session,1785.051039500002,150.0,2.0,72.0,0.024541099531960323,4,1.980253099987749,2.096845799998846,7,2.0873291000025347,2.253781199993682,0,2.771877000006498,2.9907005999994,,,54.0,66.0,24295,60.0,
-152,152,45,6,2,98,6,,,,,,,,,,,session,1798.3658963999915,150.0,2.0,72.0,0.024541099531960323,3,1.5278303999948548,1.7783666999894194,6,1.3806261999998242,1.580845499993302,0,3.115704399999231,3.3669013000035193,,,69.0,69.0,24295,60.0,
-152,-152,0,6,3,99,13,,,,,,,,,,,session,1811.340433099991,150.0,2.0,72.0,0.024541099531960323,5,1.8493874999985565,1.9992996000073617,6,1.690795899994555,1.8879188999999315,0,1.696641800008365,1.8798122000007425,,,54.0,63.0,24295,60.0,
-152,-152,0,6,3,99,13,,,materials/instructions\12_break.png,1823.0316755999957,1848.4787797000026,0,25.22825830000511,25.445010399998864,0.01637700000719633,25.45311899999797,,,,,,,,,,,,,,,,,,,,24295,60.0,
-152,-152,-45,6,4,100,12,,,,,,,,,,,session,1848.4946916999907,168.0,2.0,72.0,0.024541099531960323,4,1.1123432000022149,1.3782333999988623,6,2.0616339999978663,2.1959772999980487,0,1.6817746000015177,1.903380500007188,,,57.0,57.0,24295,60.0,
-152,152,90,6,5,101,7,,,,,,,,,,,session,1860.1331631999929,138.0,2.0,72.0,0.024541099531960323,2,0.9891678999993019,1.1753000000026077,6,1.079960300005041,1.262003800002276,0,0.606715300003998,0.8405887999979313,,,60.0,69.0,24295,60.0,
152,152,90,6,6,102,3,,,,,,,,,,,session,1869.7506341999979,174.0,2.0,72.0,0.024541099531960323,4,1.2312070000043605,1.4156872000021394,1,1.8306683999981033,2.000995399997919,0,0.7917264999996405,1.0086772999929963,,,54.0,66.0,24295,60.0,
152,152,-45,6,7,103,0,,,,,,,,,,,session,1880.5233821000002,162.0,2.0,72.0,0.024541099531960323,5,1.2886296999931801,1.4387029000063194,1,1.0667520999995759,1.2837773000064772,1,1.420181000008597,1.6553840999986278,,,54.0,48.0,24295,60.0,
-152,152,-45,6,8,104,4,,,,,,,,,,,session,1891.4173959000036,156.0,2.0,72.0,0.024541099531960323,2,1.3483883000008063,1.560712999998941,1,0.7660658999957377,0.89944110000215,1,2.2969733999925666,2.481409400003031,,,69.0,66.0,24295,60.0,
-152,-152,90,6,9,105,15,,,,,,,,,,,session,1902.6571543000027,150.0,2.0,72.0,0.024541099531960323,4,1.7913433000067016,1.9917346000001999,6,1.1488351000007242,1.3486387000011746,0,2.3816605000029085,2.6653101999982027,,,57.0,69.0,24295,60.0,
152,-152,0,6,10,106,9,,,,,,,,,,,session,1915.3319107999996,132.0,2.0,72.0,0.024541099531960323,4,1.8835336000047391,2.0009775000071386,0,3.1292091000068467,3.346009700006107,0,0.7882336000038777,0.9882652999949642,,,63.0,48.0,24295,60.0,
152,-152,90,6,11,107,11,,,,,,,,,,,session,1927.18362299999,132.0,2.0,72.0,0.024541099531960323,3,3.628575099995942,3.844359099995927,7,3.9612273999955505,4.113582399993902,0,0.9782774000050267,1.145198900005198,,,66.0,57.0,24295,60.0,
152,-152,45,6,12,108,10,,,,,,,,,,,session,1942.2025330000033,156.0,2.0,72.0,0.024541099531960323,4,1.246407700004056,1.4320761000126367,1,0.7398370999871986,0.8870558999915374,0,1.297162599992589,1.4623113999987254,,,66.0,66.0,24295,60.0,
152,152,0,6,13,109,1,,,,,,,,,,,session,1952.26778319999,126.0,2.0,72.0,0.024541099531960323,4,1.2132430000056047,1.4134744000039063,7,0.3457848000107333,0.5629102000093553,0,1.9290041999920504,2.096530499999062,,,57.0,66.0,24295,60.0,
152,152,45,6,14,110,2,,,,,,,,,,,session,1961.969591000001,174.0,2.0,72.0,0.024541099531960323,3,1.4385756999981822,1.7563554999942426,6,1.5360798000037903,1.6695348000066588,0,2.9768408999952953,3.193339499994181,,,54.0,69.0,24295,60.0,
-152,152,0,6,15,111,5,,,,,,,,,,,session,1975.0007850999973,156.0,2.0,72.0,0.024541099531960323,5,2.238091200008057,2.322388200002024,6,1.1635850000020582,1.313708100002259,0,2.997003299999051,3.2330795000016224,,,48.0,72.0,24295,60.0,
152,152,90,7,0,112,3,,,,,,,,,,,session,1987.9246975999995,174.0,2.0,72.0,0.024541099531960323,2,1.7079698000015924,1.9079190000047674,6,1.7767526999959955,1.9455470999964746,0,1.2609145000024,1.4777679999970132,,,63.0,51.0,24295,60.0,
152,152,45,7,1,113,2,,,,,,,,,,,session,1999.5988183000009,144.0,2.0,72.0,0.024541099531960323,4,1.2288416999945184,1.4787976999941748,0,1.9978188000095543,2.1819008000020403,0,2.6332034999941243,2.8500675999966916,,,57.0,54.0,24295,60.0,
-152,-152,90,7,2,114,15,,,,,,,,,,,session,2011.8067282999982,174.0,2.0,72.0,0.024541099531960323,3,1.3706110999919474,1.6071768999972846,7,1.2927495000039926,1.4933886000071652,0,2.0435595999879297,2.260453699986101,,,60.0,57.0,24295,60.0,
152,-152,0,7,3,115,9,,,,,,,,,,,session,2024.0683457999985,174.0,2.0,72.0,0.024541099531960323,4,0.8644761999894399,1.0478907999931835,6,1.2922193999984302,1.4596507999958703,1,3.8000558000057936,3.9506259000045247,,,48.0,66.0,24295,60.0,
-152,-152,0,7,4,116,13,,,,,,,,,,,session,2036.779356500003,132.0,2.0,72.0,0.024541099531960323,3,1.7581204999878537,1.941600299993297,7,0.9957380999985617,1.211630799996783,0,0.7781443999992916,0.9953474000067217,,,51.0,51.0,24295,60.0,
-152,-152,45,7,5,117,14,,,,,,,,,,,session,2046.7334652999998,138.0,2.0,72.0,0.024541099531960323,3,0.8320049999892944,1.04888590000337,7,1.3834282000025269,1.5502394999930402,1,1.7310734000056982,1.8486294000031194,,,60.0,54.0,24295,60.0,
-152,-152,-45,7,6,118,12,,,,,,,,,,,session,2056.824221499992,162.0,2.0,72.0,0.024541099531960323,5,1.7904665999958524,1.9227125999896089,6,2.0843840000015916,2.1696989000047324,0,1.4273225999932038,1.6783157000027131,,,66.0,63.0,24295,60.0,
-152,152,45,7,7,119,6,,,,,,,,,,,session,2069.5515130999993,174.0,2.0,72.0,0.024541099531960323,4,1.3063670999981696,1.5735256999905687,1,1.7317733999952907,1.9152520000061486,0,0.914733099998557,1.0648782999924151,,,66.0,66.0,24295,60.0,
-152,152,45,7,7,119,6,,,materials/instructions\12_break.png,2080.6695070999995,2122.7547508999996,0,41.799405900004786,42.0831376999995,0.022625700003118254,42.089886300003855,,,,,,,,,,,,,,,,,,,,24295,60.0,
152,-152,45,7,8,120,10,,,,,,,,,,,session,2122.7700864999933,126.0,2.0,72.0,0.024541099531960323,4,1.4140216000087094,1.5974893000093289,7,1.0139737999998033,1.2285868999897502,1,1.1909422000026098,1.390029800008051,,,51.0,54.0,24295,60.0,
152,-152,90,7,9,121,11,,,,,,,,,,,session,2132.8504479999974,162.0,2.0,72.0,0.024541099531960323,5,1.3055294000077993,1.4056164000066929,6,1.232958200009307,1.3673050000070361,0,2.8023319999920204,3.0522576999937883,,,48.0,48.0,24295,60.0,
-152,152,-45,7,10,122,4,,,,,,,,,,,session,2144.425114999991,138.0,2.0,72.0,0.024541099531960323,3,1.636664199992083,1.8106325999979163,6,1.354942399993888,1.5382207999937236,0,0.8599467000021832,1.0581073999928776,,,66.0,57.0,24295,60.0,
152,-152,-45,7,11,123,8,,,,,,,,,,,session,2154.9853737999947,150.0,2.0,72.0,0.024541099531960323,4,0.7590932000020985,0.9428006999951322,1,1.1643602999974973,1.3472714999952586,6,2.2114411999937147,2.3615528999944218,,,69.0,69.0,24295,60.0,
-152,152,0,7,12,124,5,,,,,,,,,,,session,2165.890742299991,126.0,2.0,72.0,0.024541099531960323,5,1.4616938999970444,1.6406246999977157,6,0.7918070999876363,1.0253394999890588,0,1.6123351999995066,1.796798299998045,,,60.0,54.0,24295,60.0,
152,152,-45,7,13,125,0,,,,,,,,,,,session,2176.0364998000005,138.0,2.0,72.0,0.024541099531960323,5,1.7975028000073507,1.9149804000044242,0,2.7819235999922967,2.8819921999966027,0,1.321293600005447,1.504584900001646,,,51.0,63.0,24295,60.0,
-152,152,90,7,14,126,7,,,,,,,,,,,session,2187.991961599997,162.0,2.0,72.0,0.024541099531960323,5,1.43504130000656,1.5683777000085684,7,0.5991195999959018,0.7664567999891005,0,2.9328633999975864,3.097490400003153,,,51.0,54.0,24295,60.0,
152,152,0,7,15,127,1,,,,,,,,,,,session,2199.717060199997,144.0,2.0,72.0,0.024541099531960323,4,2.7939171999896644,2.892213200000697,0,1.4140397000010125,1.5773653000069316,0,1.4250076999887824,1.5925156999874162,,,57.0,48.0,24295,60.0,
-152,152,-45,8,0,128,4,,,,,,,,,,,session,2211.392986299994,150.0,2.0,72.0,0.024541099531960323,5,1.4379891999997199,1.521147599996766,7,0.9957320999965305,1.1141446999972686,0,0.8779452000017045,1.0447368000022834,,,57.0,51.0,24295,60.0,
-152,-152,-45,8,1,129,12,,,,,,,,,,,session,2221.470114800002,156.0,2.0,72.0,0.024541099531960323,3,0.7801959999924293,0.9798439000005601,1,0.9964211000042269,1.2131032000033883,1,1.3617670999956317,1.4946414999867557,,,60.0,69.0,24295,60.0,
-152,152,45,8,2,130,6,,,,,,,,,,,session,2231.3744406999904,144.0,2.0,72.0,0.024541099531960323,5,2.0399447999952827,2.173259000002872,0,0.7628821999969659,0.9815180999867152,0,1.143731399992248,1.311150399997132,,,60.0,48.0,24295,60.0,
152,152,90,8,3,131,3,,,,,,,,,,,session,2241.5186195999995,174.0,2.0,72.0,0.024541099531960323,5,0.6957281999930274,0.8634980999922846,6,1.048938600011752,1.264042700000573,1,0.9465221999998903,1.1466459999937797,,,60.0,66.0,24295,60.0,
-152,152,90,8,4,132,7,,,,,,,,,,,session,2251.2413757999893,138.0,2.0,72.0,0.024541099531960323,4,1.2797220000065863,1.3798742000071798,0,1.1090165000059642,1.2590460000064922,0,1.3415462999982992,1.5078328999952646,,,72.0,51.0,24295,60.0,
-152,152,0,8,5,133,5,,,,,,,,,,,session,2261.1870944999973,156.0,2.0,72.0,0.024541099531960323,2,1.0799400999967474,1.2292943000065861,0,0.4165079000085825,0.6666133000107948,1,1.2953349000017624,1.462164099997608,,,63.0,54.0,24295,60.0,
152,-152,-45,8,6,134,8,,,,,,,,,,,session,2270.554196099998,174.0,2.0,72.0,0.024541099531960323,4,0.7107488000037847,0.9126840999961132,6,1.1916987000004156,1.3602039999968838,1,1.3386124999960884,1.5101434999960475,,,66.0,72.0,24295,60.0,
-152,-152,90,8,7,135,15,,,,,,,,,,,session,2281.0032855000027,144.0,2.0,72.0,0.024541099531960323,5,1.398640899991733,1.4987959999998566,7,1.2074391999922227,1.3564310999936424,0,1.2775321999943117,1.5759270999988075,,,51.0,63.0,24295,60.0,
152,152,0,8,8,136,1,,,,,,,,,,,session,2291.2873706999962,138.0,2.0,72.0,0.024541099531960323,3,1.3069615999993403,1.5035468999994919,1,1.1964374000090174,1.3965167999995174,0,2.8530714999942575,3.0304360000009183,,,60.0,66.0,24295,60.0,
-152,-152,0,8,9,137,13,,,,,,,,,,,session,2303.064050599991,180.0,2.0,72.0,0.024541099531960323,4,1.330424400002812,1.4981655000010505,7,0.5596708999946713,0.6931747999915387,0,2.2085389999992913,2.408693500008667,,,69.0,60.0,24295,60.0,
152,152,45,8,10,138,2,,,,,,,,,,,session,2314.4532647000015,144.0,2.0,72.0,0.024541099531960323,3,1.165685800006031,1.4490367999969749,1,1.647270200002822,1.8324942000035662,0,1.7592905000055907,2.004791800005478,,,63.0,66.0,24295,60.0,
-152,-152,45,8,11,139,14,,,,,,,,,,,session,2325.732865099999,156.0,2.0,72.0,0.024541099531960323,2,1.7812960000010207,1.9812769999989541,0,0.7455983000108972,0.9291429000004428,0,2.798934799997369,2.999439399995026,,,57.0,66.0,24295,60.0,
-152,-152,45,8,11,139,14,,,materials/instructions\12_break.png,2337.806682399998,2361.38666199999,0,23.34447490000457,23.577963899995666,0.014917300009983592,23.584904600007576,,,,,,,,,,,,,,,,,,,,24295,60.0,
152,-152,45,8,12,140,10,,,,,,,,,,,session,2361.402295599997,168.0,2.0,72.0,0.024541099531960323,5,1.5607115000020713,1.6753551000001607,1,0.5200654000072973,0.6917983000021195,0,1.2250149000028614,1.4920963000040501,,,57.0,54.0,24295,60.0,
152,-152,90,8,13,141,11,,,,,,,,,,,session,2371.3680603999965,180.0,2.0,72.0,0.024541099531960323,4,1.9981510999932652,2.2149042999953963,7,0.36416720000852365,0.5643482000014046,0,0.6830855000007432,0.9168008999986341,,,63.0,72.0,24295,60.0,
152,152,-45,8,14,142,0,,,,,,,,,,,session,2381.7546491999965,162.0,2.0,72.0,0.024541099531960323,5,1.2609044999990147,1.3452407000004314,1,1.3593297000043094,1.5594159000029322,0,1.3393225999898277,1.50561779999407,,,72.0,66.0,24295,60.0,
152,-152,0,8,15,143,9,,,,,,,,,,,session,2392.637225899991,144.0,2.0,72.0,0.024541099531960323,5,1.4990671999985352,1.66689610001049,6,0.8279544999968493,0.991237900001579,0,3.314404500008095,3.5145655000087572,,,60.0,60.0,24295,60.0,
-152,-152,45,9,0,144,14,,,,,,,,,,,session,2404.689584699998,168.0,2.0,72.0,0.024541099531960323,3,1.448182199994335,1.7314035000017611,1,2.6377221000002464,2.7880434000107925,0,3.2737756999995327,3.4569315999979153,,,66.0,51.0,24295,60.0,
-152,152,90,9,1,145,7,,,,,,,,,,,session,2418.8892223000003,126.0,2.0,72.0,0.024541099531960323,5,1.321744499990018,1.4408373999904143,6,1.280604300001869,1.4829266000015195,0,1.6442351000005146,1.8281366000010166,,,72.0,69.0,24295,60.0,
152,152,45,9,2,146,2,,,,,,,,,,,session,2429.5748501999915,174.0,2.0,72.0,0.024541099531960323,4,1.4523497000045609,1.6309524999960558,6,2.2429861999989953,2.379092299990589,0,3.380050099993241,3.5970442999969237,,,48.0,69.0,24295,60.0,
152,-152,-45,9,3,147,8,,,,,,,,,,,session,2443.5195410000015,138.0,2.0,72.0,0.024541099531960323,5,2.689021000012872,2.8059166000020923,6,0.6414222000021255,0.7757848000037484,0,5.165700300000026,5.367740599991521,,,72.0,60.0,24295,60.0,
152,-152,0,9,4,148,9,,,,,,,,,,,session,2458.4194159999897,150.0,2.0,72.0,0.024541099531960323,4,1.154716000004555,1.3413796000095317,0,1.0957828999962658,1.2795050999993691,1,0.6455533999978798,0.8125115000002552,,,72.0,69.0,24295,60.0,
152,152,90,9,5,149,3,,,,,,,,,,,session,2468.1699724999926,174.0,2.0,72.0,0.024541099531960323,3,1.5415778000024147,1.7580801000003703,6,1.2126320000097621,1.4297520000109216,0,2.9514297999994596,3.1395439000043552,,,54.0,57.0,24295,60.0,
152,152,0,9,6,150,1,,,,,,,,,,,session,2480.6896788000013,144.0,2.0,72.0,0.024541099531960323,4,1.8384115000080783,1.9693811000033747,7,2.8273952000017744,2.9440098000050057,0,1.3817225999955554,1.599590999991051,,,57.0,69.0,24295,60.0,
152,152,-45,9,7,151,0,,,,,,,,,,,session,2493.191544599991,156.0,2.0,72.0,0.024541099531960323,4,1.3864496000023792,1.5531552000029478,1,1.05137570000079,1.20145279999997,0,4.888636800009408,5.0889303000003565,,,66.0,51.0,24295,60.0,
-152,-152,-45,9,8,152,12,,,,,,,,,,,session,2507.039503199994,162.0,2.0,72.0,0.024541099531960323,5,1.7837459000002127,1.8856403000099817,6,1.7488627999991877,1.9153836999903433,0,2.0665644999971846,2.2854810999997426,,,48.0,57.0,24295,60.0,
-152,-152,90,9,9,153,15,,,,,,,,,,,session,2519.0458983999997,174.0,2.0,72.0,0.024541099531960323,4,3.0024829999892972,3.1195698999945307,0,1.261868700006744,1.4280883000028552,0,1.2136243999993894,1.4304493999952683,,,66.0,51.0,24295,60.0,
152,-152,45,9,10,154,10,,,,,,,,,,,session,2531.6197259000037,162.0,2.0,72.0,0.024541099531960323,4,1.3934432999958517,1.5936231000086991,6,1.1785497999953805,1.3287693000020226,0,2.0103721000050427,2.274927700011176,,,63.0,60.0,24295,60.0,
152,-152,90,9,11,155,11,,,,,,,,,,,session,2543.010906800002,180.0,2.0,72.0,0.024541099531960323,4,1.832103200009442,2.0154431000119075,1,1.3981965999992099,1.5150458999996772,0,3.2651359000010416,3.465578600007575,,,60.0,48.0,24295,60.0,
-152,152,-45,9,12,156,4,,,,,,,,,,,session,2556.805845499999,162.0,2.0,72.0,0.024541099531960323,3,2.815308200006257,3.0311151999922004,6,0.697561000008136,0.832737000004272,0,1.0321684000082314,1.2765493000042625,,,48.0,51.0,24295,60.0,
-152,152,45,9,13,157,6,,,,,,,,,,,session,2567.7503899000003,150.0,2.0,72.0,0.024541099531960323,4,1.8202338999981293,1.98720129999856,1,1.3747590999992099,1.558255999989342,0,3.166253000003053,3.366412699993816,,,54.0,57.0,24295,60.0,
-152,152,0,9,14,158,5,,,,,,,,,,,session,2580.774136699998,138.0,2.0,72.0,0.024541099531960323,4,0.8104928999964613,1.0953167999978177,7,2.243537500005914,2.359880799995153,0,2.089680299992324,2.3056775000004563,,,57.0,54.0,24295,60.0,
-152,-152,0,9,15,159,13,,,,,,,,,,,session,2592.1556925999903,138.0,2.0,72.0,0.024541099531960323,5,1.5702324000012595,1.7379523999989033,6,2.0071391999954358,2.190608999997494,0,2.018072899998515,2.1511877000011737,,,54.0,63.0,24295,60.0,
-152,-152,0,9,15,159,13,,,materials/instructions\12_break.png,2603.971707799996,2643.6193411999993,0,39.46174349999637,39.64522190000571,0.02023969999572728,39.65285669999139,,,,,,,,,,,,,,,,,,,,24295,60.0,
-152,-152,90,10,0,160,15,,,,,,,,,,,session,2643.6347087999893,162.0,2.0,72.0,0.024541099531960323,4,1.0908758000005037,1.3409920999984024,6,1.2316998000023887,1.4165485000121407,0,1.7727366000035545,1.9225993000000017,,,57.0,60.0,24295,60.0,
152,-152,0,10,1,161,9,,,,,,,,,,,session,2654.4124673999904,168.0,2.0,72.0,0.024541099531960323,4,0.6235470999963582,0.8397918999980902,0,0.8130966000026092,1.0139927999989595,1,1.8714233000064269,2.1031095999933314,,,48.0,57.0,24295,60.0,
152,152,-45,10,2,162,0,,,,,,,,,,,session,2664.918711499995,138.0,2.0,72.0,0.024541099531960323,5,1.0907244999980321,1.2245068000047468,7,2.0988574999937555,2.182247099990491,0,5.623219199987943,5.819413499993971,,,66.0,51.0,24295,60.0,
-152,-152,0,10,3,163,13,,,,,,,,,,,session,2679.8539045999933,180.0,2.0,72.0,0.024541099531960323,5,1.524297399999341,1.6072280000080355,1,1.4464503999915905,1.5965952999977162,0,1.5631071999960113,1.7966062999912538,,,63.0,54.0,24295,60.0,
152,-152,45,10,4,164,10,,,,,,,,,,,session,2691.275142899991,132.0,2.0,72.0,0.024541099531960323,4,0.6808778000122402,0.8816661000018939,7,0.8127571999939391,1.0293280000041705,1,1.2407671000109985,1.3744602000078885,,,57.0,69.0,24295,60.0,
-152,-152,45,10,5,165,14,,,,,,,,,,,session,2700.3073278999946,174.0,2.0,72.0,0.024541099531960323,5,2.231537500003469,2.3982258000032743,6,0.6957435999938753,0.8294068999966839,0,1.631587000010768,1.7985156000067946,,,69.0,60.0,24295,60.0,
152,152,90,10,6,166,3,,,,,,,,,,,session,2712.176483499992,144.0,2.0,72.0,0.024541099531960323,5,1.5965207000117516,1.763944000005722,6,1.016413500008639,1.1175929000019096,1,1.0223077999980887,1.2003148999938276,,,57.0,51.0,24295,60.0,
152,-152,90,10,7,167,11,,,,,,,,,,,session,2721.9016335999913,144.0,2.0,72.0,0.024541099531960323,4,0.6086713999975473,0.8088292000029469,6,1.277595299994573,1.4775134999945294,1,0.9311807000049157,1.0313426000066102,,,51.0,57.0,24295,60.0,
-152,-152,-45,10,8,168,12,,,,,,,,,,,session,2731.34126809999,144.0,2.0,72.0,0.024541099531960323,5,1.2758792000095127,1.4092918999958783,7,0.6081122000032337,0.7758980999933556,0,3.070309799993993,3.3191454999905545,,,66.0,60.0,24295,60.0,
-152,152,90,10,9,169,7,,,,,,,,,,,session,2742.7833673999994,138.0,2.0,72.0,0.024541099531960323,3,2.141317200002959,2.2912314999994123,6,1.3756502000032924,1.5262364000082016,0,1.8931336999958148,2.1433841999969445,,,54.0,63.0,24295,60.0,
-152,152,-45,10,10,170,4,,,,,,,,,,,session,2755.14020709999,168.0,2.0,72.0,0.024541099531960323,4,1.6554093000013381,1.8221743000030983,1,1.5957004999945639,1.862528099998599,0,3.1666823999985354,3.404590599995572,,,48.0,51.0,24295,60.0,
152,-152,-45,10,11,171,8,,,,,,,,,,,session,2768.14191939999,126.0,2.0,72.0,0.024541099531960323,3,2.811176400005934,3.044546999997692,6,1.558938100002706,1.7089899999991758,0,3.2960470999969402,3.4462085999984993,,,63.0,66.0,24295,60.0,
152,152,0,10,12,172,1,,,,,,,,,,,session,2782.06177439999,150.0,2.0,72.0,0.024541099531960323,2,2.0286092000023928,2.1565445000014734,6,1.0238490999909118,1.2221019999997225,0,0.9435161000001244,1.1935434000042733,,,48.0,63.0,24295,60.0,
-152,152,45,10,13,173,6,,,,,,,,,,,session,2792.471095999994,132.0,2.0,72.0,0.024541099531960323,2,3.1981025999994017,3.365630499989493,1,1.3101548999984516,1.5094525000022259,0,1.661512100006803,1.8448971000034362,,,60.0,63.0,24295,60.0,
-152,152,0,10,14,174,5,,,,,,,,,,,session,2804.893855000002,156.0,2.0,72.0,0.024541099531960323,4,1.6158015999972122,1.8340016000001924,6,1.1603906000091229,1.3400498000119114,0,3.8678492000035476,4.118389900002512,,,66.0,69.0,24295,60.0,
152,152,45,10,15,175,2,,,,,,,,,,,session,2818.524825799992,126.0,2.0,72.0,0.024541099531960323,5,1.530094600006123,1.6956065999984276,7,0.3753419000131544,0.5095655000041006,0,2.4448343999974895,2.644853499994497,,,69.0,63.0,24295,60.0,
-152,152,-45,11,0,176,4,,,,,,,,,,,session,2829.1292023999995,174.0,2.0,72.0,0.024541099531960323,2,2.89488400000846,3.0138855000113836,1,0.5782777000131318,0.7274518000049284,0,2.993262299991329,3.159266299990122,,,63.0,69.0,24295,60.0,
-152,152,0,11,1,177,5,,,,,,,,,,,session,2843.0229528999917,162.0,2.0,72.0,0.024541099531960323,4,1.2912814000010258,1.492053100009798,7,0.4607001999975182,0.5934293000027537,0,1.7944218999909936,2.0279708999878494,,,66.0,54.0,24295,60.0,
152,152,45,11,2,178,2,,,,,,,,,,,session,2853.298752799994,180.0,2.0,72.0,0.024541099531960323,5,0.5728885999997146,0.7229045999993104,7,0.6590077000000747,0.8260466999927303,6,1.060931799991522,1.1941859999933513,,,72.0,54.0,24295,60.0,
152,-152,90,11,3,179,11,,,,,,,,,,,session,2863.288479900002,174.0,2.0,72.0,0.024541099531960323,3,1.330726100000902,1.5305638999998337,0,1.3291108999983408,1.4458983000076842,0,1.4966923000029055,1.612447699997574,,,48.0,54.0,24295,60.0,
152,-152,90,11,3,179,11,,,materials/instructions\12_break.png,2873.9601553999964,2894.093889099997,0,19.931487399997422,20.131469600004493,0.02166169999691192,20.138823499990394,,,,,,,,,,,,,,,,,,,,24295,60.0,
152,152,0,11,4,180,1,,,,,,,,,,,session,2894.1089256999985,150.0,2.0,72.0,0.024541099531960323,5,0.9814695999957621,1.1043465999973705,0,0.9073243000020739,1.1239782000047853,1,0.5126135000027716,0.6793202999979258,,,69.0,57.0,24295,60.0,
-152,152,45,11,5,181,6,,,,,,,,,,,session,2903.1053836999927,132.0,2.0,72.0,0.024541099531960323,4,1.1332007000019075,1.3332936999941012,7,1.4925498999946285,1.659036199998809,0,0.6989803000033135,0.8825857999909203,,,57.0,69.0,24295,60.0,
152,152,-45,11,6,182,0,,,,,,,,,,,session,2912.7263912999915,174.0,2.0,72.0,0.024541099531960323,5,0.848654000001261,1.0165112999966368,1,0.8421233999979449,1.0521957000019029,1,0.756751400011126,0.9710067000123672,,,57.0,51.0,24295,60.0,
-152,-152,45,11,7,183,14,,,,,,,,,,,session,2921.921436699995,126.0,2.0,72.0,0.024541099531960323,4,1.3429102999944007,1.5588910999940708,7,1.404540299990913,1.5374181999941356,0,0.8314394000044558,1.0164519999962067,,,54.0,72.0,24295,60.0,
-152,-152,90,11,8,184,15,,,,,,,,,,,session,2931.8292901999957,132.0,2.0,72.0,0.024541099531960323,3,1.068363300000783,1.2508607000054326,0,0.33164589999068994,0.5128985999908764,0,0.9270507999899564,1.193866399989929,,,72.0,57.0,24295,60.0,
-152,152,90,11,9,185,7,,,,,,,,,,,session,2940.5809986999957,126.0,2.0,72.0,0.024541099531960323,3,1.0731422999961069,1.3064966999954777,1,0.8128909999941243,0.9956883999984711,0,0.8565266000077827,1.059458600007929,,,72.0,57.0,24295,60.0,
-152,-152,0,11,10,186,13,,,,,,,,,,,session,2950.2275538999966,126.0,2.0,72.0,0.024541099531960323,3,0.6458369000029052,0.8293441000132589,0,1.0479818000021623,1.2315729999972973,0,1.0077256999938982,1.3083007999957772,,,69.0,57.0,24295,60.0,
152,-152,-45,11,11,187,8,,,,,,,,,,,session,2959.2465354000014,168.0,2.0,72.0,0.024541099531960323,4,0.725584700005129,0.9255571999965468,1,0.9801410999934888,1.2464788999932352,1,0.5946132999961264,0.8249814000009792,,,66.0,66.0,24295,60.0,
152,152,90,11,12,188,3,,,,,,,,,,,session,2968.6901774,174.0,2.0,72.0,0.024541099531960323,3,1.31341099999554,1.4803971999936039,6,2.028854100004537,2.1438531000021612,0,0.5807053000025917,0.7808647000056226,,,66.0,69.0,24295,60.0,
152,-152,45,11,13,189,10,,,,,,,,,,,session,2979.7115235999954,150.0,2.0,72.0,0.024541099531960323,5,2.0503796999983024,2.2485129999986384,7,0.9412353000079747,1.0527639000065392,0,1.2083706999983406,1.3722498999995878,,,51.0,48.0,24295,60.0,
-152,-152,-45,11,14,190,12,,,,,,,,,,,session,2990.00557329999,138.0,2.0,72.0,0.024541099531960323,3,1.4735810999991372,1.607496299999184,1,2.4823736999969697,2.582366099988576,0,0.9897036000038497,1.1232071000122232,,,69.0,54.0,24295,60.0,
152,-152,0,11,15,191,9,,,,,,,,,,,session,3001.110060699997,150.0,2.0,72.0,0.024541099531960323,4,1.1452289000008022,1.3285834999987856,0,1.2118003000068711,1.3797409999970114,6,1.5240080000075977,1.6904988000023877,,,63.0,72.0,24295,60.0,
-152,152,-45,12,0,192,4,,,,,,,,,,,session,3011.6937911999994,138.0,2.0,72.0,0.024541099531960323,3,1.2320211000042036,1.4628635000117356,7,1.5655724999960512,1.799278399994364,0,2.063912199999322,2.2807949999987613,,,57.0,72.0,24295,60.0,
152,-152,-45,12,1,193,8,,,,,,,,,,,session,3023.144063899992,168.0,2.0,72.0,0.024541099531960323,3,1.396321500011254,1.6454605000035372,6,0.6152810000057798,0.7672109999984968,0,1.7573271000001114,1.8739819000038551,,,72.0,69.0,24295,60.0,
152,152,45,12,2,194,2,,,,,,,,,,,session,3034.0567332999926,144.0,2.0,72.0,0.024541099531960323,3,2.532138299997314,2.748855999991065,7,1.2795610000030138,1.479687400002149,0,0.9960087000072235,1.1622575000073994,,,69.0,63.0,24295,60.0,
-152,-152,90,12,3,195,15,,,,,,,,,,,session,3045.5117950999993,180.0,2.0,72.0,0.024541099531960323,2,1.4901061999989906,1.7229462999966927,6,2.76337469999271,2.875828799995361,0,1.356469599995762,1.6066154999862192,,,63.0,48.0,24295,60.0,
-152,152,0,12,4,196,5,,,,,,,,,,,session,3058.0256032000034,162.0,2.0,72.0,0.024541099531960323,5,1.422960099996999,1.5913437999988673,6,1.4000114000082249,1.5500888000096893,0,3.4540296999912243,3.670650799991563,,,48.0,57.0,24295,60.0,
-152,-152,0,12,5,197,13,,,,,,,,,,,session,3070.733462000004,162.0,2.0,72.0,0.024541099531960323,3,1.4057877000013832,1.6892692999972496,1,3.9438831000006758,4.12690940000175,0,3.1613119000103325,3.3781208000000333,,,72.0,57.0,24295,60.0,
-152,152,90,12,6,198,7,,,,,,,,,,,session,3086.3785670999932,162.0,2.0,72.0,0.024541099531960323,3,4.3530304999876535,4.586125199988601,1,4.233790399986901,4.383854799991241,0,0.8779260000010254,1.092591699998593,,,66.0,48.0,24295,60.0,
152,-152,45,12,7,199,10,,,,,,,,,,,session,3102.507498699997,126.0,2.0,72.0,0.024541099531960323,4,1.6613122999988263,1.8276886000094237,7,3.1126719000021694,3.3464107000036165,0,1.283331200000248,1.4483011000120314,,,69.0,69.0,24295,60.0,
152,-152,45,12,7,199,10,,,materials/instructions\12_break.png,3115.024311000001,3148.476226999992,0,33.23016690000077,33.44919670000672,0.02452370000537485,33.45477799999935,,,,,,,,,,,,,,,,,,,,24295,60.0,
152,152,0,12,8,200,1,,,,,,,,,,,session,3148.4896343,132.0,2.0,72.0,0.024541099531960323,5,1.055443400007789,1.2055020000116201,0,0.3964336000062758,0.5787989999953425,1,0.6458442000002833,0.8134003000013763,,,57.0,66.0,24295,60.0,
152,152,-45,12,9,201,0,,,,,,,,,,,session,3156.796777800002,126.0,2.0,72.0,0.024541099531960323,5,0.5282901000027778,0.6949912999989465,1,1.2439707000012277,1.4624041999923065,1,1.3195429999905173,1.490699499991024,,,48.0,51.0,24295,60.0,
-152,152,45,12,10,202,6,,,,,,,,,,,session,3165.661363899999,156.0,2.0,72.0,0.024541099531960323,5,2.187835399992764,2.354546200003824,1,1.5462925000028918,1.7798394999990705,0,1.8308667999954196,2.0288640999933705,,,57.0,60.0,24295,60.0,
-152,-152,45,12,11,203,14,,,,,,,,,,,session,3177.8430106000014,168.0,2.0,72.0,0.024541099531960323,3,2.3857052999956068,2.4855200000019977,6,1.408934799997951,1.5208901000005426,0,1.9878770999930566,2.1902045000024373,,,72.0,66.0,24295,60.0,
-152,-152,-45,12,12,204,12,,,,,,,,,,,session,3190.611459599997,126.0,2.0,72.0,0.024541099531960323,3,1.1424262999935308,1.291973200000939,1,2.2983540999994148,2.4643822999933036,1,1.2454709000012372,1.3622469000110868,,,60.0,51.0,24295,60.0,
152,-152,90,12,13,205,11,,,,,,,,,,,session,3201.1295690999978,168.0,2.0,72.0,0.024541099531960323,4,1.2243840000010096,1.4251441999949748,7,0.9239223000040511,1.1235414999973727,0,1.8311449000029825,2.014724499997101,,,72.0,54.0,24295,60.0,
152,-152,0,12,14,206,9,,,,,,,,,,,session,3212.061707999994,174.0,2.0,72.0,0.024541099531960323,5,2.2837155000015628,2.4338851000065915,1,0.9593773000087822,1.076081899998826,0,0.9890191000013147,1.1223093000007793,,,60.0,60.0,24295,60.0,
152,152,90,12,15,207,3,,,,,,,,,,,session,3223.0295031999995,180.0,2.0,72.0,0.024541099531960323,4,1.20184569999401,1.3686304000002565,0,2.0351259000017308,2.172554400007357,0,1.0936973000061698,1.3117462000082014,,,51.0,66.0,24295,60.0,
-152,-152,-45,13,0,208,12,,,,,,,,,,,session,3234.2923882999894,174.0,2.0,72.0,0.024541099531960323,5,1.1943697000097018,1.3439160000125412,7,0.3451251000078628,0.4790633000084199,0,0.8306363000010606,1.047379000010551,,,54.0,48.0,24295,60.0,
-152,152,0,13,1,209,5,,,,,,,,,,,session,3243.211774399999,174.0,2.0,72.0,0.024541099531960323,3,1.8230793999973685,2.0055070999951568,0,1.8617989999911515,2.0156268999999156,0,0.9122863999946276,1.1757975999935297,,,54.0,48.0,24295,60.0,
152,152,-45,13,2,210,0,,,,,,,,,,,session,3254.4748700999917,132.0,2.0,72.0,0.024541099531960323,3,2.630434199993033,2.8124259999895003,1,1.925661500004935,2.0108631000039168,0,3.098273399999016,3.2982136999926297,,,57.0,54.0,24295,60.0,
152,-152,-45,13,3,211,8,,,,,,,,,,,session,3268.11594209999,168.0,2.0,72.0,0.024541099531960323,5,1.6825791999872308,1.8714034000004176,6,2.1052237000112655,2.242022200007341,0,3.6452533999981824,3.8616174000053434,,,60.0,57.0,24295,60.0,
-152,-152,0,13,4,212,13,,,,,,,,,,,session,3282.2946223999897,180.0,2.0,72.0,0.024541099531960323,4,1.3436113999923691,1.5283078999927966,1,2.835167500001262,3.01762269999017,1,0.011025800005882047,0.012988600006792694,,,51.0,48.0,24295,60.0,
152,-152,0,13,5,213,9,,,,,,,,,,,session,3292.9353327999997,168.0,2.0,72.0,0.024541099531960323,4,1.056891700005508,1.1904721000028076,0,1.47729550000804,1.6772751000098651,6,1.8496007999929134,2.0320572999917204,,,51.0,48.0,24295,60.0,
-152,-152,90,13,6,214,15,,,,,,,,,,,session,3304.195932100003,138.0,2.0,72.0,0.024541099531960323,3,0.8231884999986505,0.990677499998128,6,0.9816234999889275,1.1640966999984812,1,0.8100047999905655,1.0268852000008337,,,66.0,63.0,24295,60.0,
152,-152,45,13,7,215,10,,,,,,,,,,,session,3313.2820846999966,168.0,2.0,72.0,0.024541099531960323,4,0.8474830000050133,1.036561900007655,7,1.0961135999968974,1.1772357000008924,1,2.595918299994082,2.711184999992838,,,48.0,54.0,24295,60.0,
152,-152,90,13,8,216,11,,,,,,,,,,,session,3324.1618238999945,138.0,2.0,72.0,0.024541099531960323,4,0.44137590000173077,0.6428914999996778,1,1.3161168999940855,1.4981402999983402,1,1.2319241000077454,1.4321770000096876,,,72.0,48.0,24295,60.0,
-152,152,-45,13,9,217,4,,,,,,,,,,,session,3333.4972154999996,156.0,2.0,72.0,0.024541099531960323,5,1.0288297000079183,1.1114540999988094,0,0.9585971999913454,1.1352522999950452,0,0.8446298000053503,1.0445620999962557,,,72.0,72.0,24295,60.0,
152,152,0,13,10,218,1,,,,,,,,,,,session,3343.2589423000027,138.0,2.0,72.0,0.024541099531960323,4,0.9477224000002025,1.1322464000113541,7,2.2262765999912517,2.359561699995538,0,2.7191343999875244,2.8673147999943467,,,54.0,72.0,24295,60.0,
-152,-152,45,13,11,219,14,,,,,,,,,,,session,3355.48152809999,138.0,2.0,72.0,0.024541099531960323,3,1.0734233999974094,1.2892173000000184,7,1.480764399995678,1.6809787999955006,0,2.041335000001709,2.208524800007581,,,60.0,60.0,24295,60.0,
-152,-152,45,13,11,219,14,,,materials/instructions\12_break.png,3366.4654296999943,3387.3538123999897,0,20.657409599996754,20.88679369998863,0.02544080000370741,20.898220500006573,,,,,,,,,,,,,,,,,,,,24295,60.0,
152,152,45,13,12,220,2,,,,,,,,,,,session,3387.374112999998,144.0,2.0,72.0,0.024541099531960323,4,1.102672499997425,1.2685113999905298,0,2.961103699999512,3.1451013999903807,0,0.6809080999955768,0.010954600002150983,,,60.0,57.0,24295,60.0,
-152,152,45,13,13,221,6,,,,,,,,,,,session,3398.3165802000003,138.0,2.0,72.0,0.024541099531960323,2,1.7674155999993673,1.9684737000061432,7,1.0619465000054333,1.244710800005123,0,0.7059570999990683,0.9729458999936469,,,57.0,60.0,24295,60.0,
-152,152,90,13,14,222,7,,,,,,,,,,,session,3408.2130940999923,144.0,2.0,72.0,0.024541099531960323,2,1.212444000004325,1.4294262000039453,6,1.3468548000091687,1.4799443000083556,0,1.0283416000020225,1.2471174000093015,,,54.0,54.0,24295,60.0,
152,152,90,13,15,223,3,,,,,,,,,,,session,3418.1483265999996,174.0,2.0,72.0,0.024541099531960323,5,1.3914177999977255,1.4916579999990063,0,1.2601947000075597,1.4261296000040602,0,0.6607299000024796,0.9100942000077339,,,69.0,57.0,24295,60.0,
152,-152,-45,14,0,224,8,,,,,,,,,,,session,3428.446383100003,174.0,2.0,72.0,0.024541099531960323,5,1.188260299997637,1.2900093999924138,7,0.6616327999945497,0.8446423999994295,0,1.164737300001434,1.4148831999918912,,,69.0,57.0,24295,60.0,
152,-152,45,14,1,225,10,,,,,,,,,,,session,3438.980020499992,180.0,2.0,72.0,0.024541099531960323,3,2.432962899998529,2.600816699996358,6,1.7030235999991419,1.8370291000028374,0,4.0228706000052625,4.202588100000867,,,51.0,66.0,24295,60.0,
-152,152,45,14,2,226,6,,,,,,,,,,,session,3454.010517799994,168.0,2.0,72.0,0.024541099531960323,5,1.3635358000028646,1.447624199994607,1,2.3518691999925068,2.5341733999957796,0,1.247424899993348,1.4456277999997837,,,66.0,72.0,24295,60.0,
-152,-152,0,14,3,227,13,,,,,,,,,,,session,3465.999227399996,126.0,2.0,72.0,0.024541099531960323,3,0.7950800000107847,0.9951650000002701,0,0.39436039999418426,0.5944932999991579,1,0.7225765000039246,0.9208229999931064,,,69.0,63.0,24295,60.0,
152,-152,90,14,4,228,11,,,,,,,,,,,session,3474.2772396999935,180.0,2.0,72.0,0.024541099531960323,4,1.047808699993766,1.2480920999951195,7,0.8966281000029994,1.0965691000019433,0,1.0776609999884386,1.3277100999985123,,,54.0,69.0,24295,60.0,
152,152,45,14,5,229,2,,,,,,,,,,,session,3484.597626799994,156.0,2.0,72.0,0.024541099531960323,5,1.6097202000091784,1.7592836000112584,1,1.2852234000019962,1.483360400001402,0,1.5550886999990325,1.8108034000033513,,,60.0,48.0,24295,60.0,
-152,-152,45,14,6,230,14,,,,,,,,,,,session,3495.496464099997,126.0,2.0,72.0,0.024541099531960323,3,1.2266176999983145,1.4786525999952573,6,0.8900642000080552,1.0560629999963567,0,0.6932325000088895,0.9077073000080418,,,48.0,69.0,24295,60.0,
152,152,0,14,7,231,1,,,,,,,,,,,session,3504.846028,174.0,2.0,72.0,0.024541099531960323,4,1.2778113999956986,1.4780007000081241,1,1.196335500004352,1.3795205000060378,0,0.5427416000020457,0.8267079000070225,,,66.0,72.0,24295,60.0,
-152,152,-45,14,8,232,4,,,,,,,,,,,session,3515.187561899991,162.0,2.0,72.0,0.024541099531960323,4,2.338043599986122,2.490208699993673,6,1.5428988999919966,1.7106263000023318,0,1.0648292000114452,1.2309042000124464,,,57.0,63.0,24295,60.0,
-152,152,90,14,9,233,7,,,,,,,,,,,session,3527.498437599992,144.0,2.0,72.0,0.024541099531960323,3,1.5682044999994105,1.7513856000005035,7,4.5323349999962375,4.698061400005827,0,0.8112774000037462,1.0282513999991352,,,57.0,54.0,24295,60.0,
-152,-152,90,14,10,234,15,,,,,,,,,,,session,3540.6810186999937,132.0,2.0,72.0,0.024541099531960323,2,1.6140218999935314,1.797408099999302,6,1.9101841000083368,2.0777524000004632,0,1.213694399993983,1.4490497999940999,,,66.0,60.0,24295,60.0,
-152,152,0,14,11,235,5,,,,,,,,,,,session,3551.883707000001,138.0,2.0,72.0,0.024541099531960323,4,4.033966999995755,4.167447200001334,1,1.7588497000106145,1.9591308000090066,0,4.8629985000006855,5.096539199992549,,,60.0,48.0,24295,60.0,
-152,-152,-45,14,12,236,12,,,,,,,,,,,session,3568.649447699994,138.0,2.0,72.0,0.024541099531960323,4,4.213800999990781,4.350216799997725,7,0.548810099993716,0.7156766999978572,0,0.8185012000030838,1.016677300009178,,,72.0,69.0,24295,60.0,
152,-152,0,14,13,237,9,,,,,,,,,,,session,3580.836097399995,138.0,2.0,72.0,0.024541099531960323,5,1.2242289999994682,1.3739780000032624,6,0.5569798999931663,0.7097336999868276,0,2.265825800001039,2.4489872999984073,,,60.0,69.0,24295,60.0,
152,152,90,14,14,238,3,,,,,,,,,,,session,3591.848582199993,162.0,2.0,72.0,0.024541099531960323,2,3.9492643999983557,4.1169129999907454,0,2.244107799997437,2.4276224999921396,0,1.323525999992853,1.5179952000034973,,,54.0,51.0,24295,60.0,
152,152,-45,14,15,239,0,,,,,,,,,,,session,3605.8095718999975,126.0,2.0,72.0,0.024541099531960323,3,1.7141677000035997,1.8975632999936352,6,3.0092765999870608,3.394342100000358,0,1.113703399998485,1.3305162999895401,,,48.0,60.0,24295,60.0,
152,152,-45,14,15,239,0,,,materials/instructions\12_break.png,3618.2082714999997,3648.5358554999984,0,30.175350300007267,30.325499700004002,0.024220799998147413,30.333104399993317,,,,,,,,,,,,,,,,,,,,24295,60.0,
-152,152,-45,15,0,240,4,,,,,,,,,,,session,3648.551549099997,174.0,2.0,72.0,0.024541099531960323,2,0.9678558000014164,1.1845563999959268,6,1.1584961000044132,1.4438942999986466,1,0.46312440000474453,0.6632196999998996,,,72.0,66.0,24295,60.0,
152,-152,0,15,1,241,9,,,,,,,,,,,session,3659.1633705999993,138.0,2.0,72.0,0.024541099531960323,4,1.4152568999998039,1.6154096000100253,7,1.6010259999893606,1.8187752999947406,0,3.762767600012012,3.896226500000921,,,72.0,57.0,24295,60.0,
-152,-152,90,15,2,242,15,,,,,,,,,,,session,3672.377141299992,174.0,2.0,72.0,0.024541099531960323,2,1.6785999999992782,1.8796538000024157,1,0.9793005000101402,1.129229199999827,0,2.130825200001709,2.2154245999990962,,,69.0,51.0,24295,60.0,
152,-152,90,15,3,243,11,,,,,,,,,,,session,3684.366683,126.0,2.0,72.0,0.024541099531960323,5,1.5157356999989133,1.715723600005731,7,1.897884799996973,2.0628161000058753,0,1.6098157999949763,1.7884581999969669,,,54.0,69.0,24295,60.0,
-152,-152,45,15,4,244,14,,,,,,,,,,,session,3695.5279863999895,150.0,2.0,72.0,0.024541099531960323,3,3.62991659999534,3.763281499996083,1,1.0275286000105552,1.1443289000017103,0,0.4642433999979403,0.6314527999929851,,,48.0,60.0,24295,60.0,
-152,152,90,15,5,245,7,,,,,,,,,,,session,3706.9171692999953,150.0,2.0,72.0,0.024541099531960323,4,4.403516999998828,4.586782600003062,7,1.0833203000074718,1.3491671000083443,0,0.7567505999904824,0.9103143999964232,,,51.0,60.0,24295,60.0,
152,-152,-45,15,6,246,8,,,,,,,,,,,session,3719.583154299995,150.0,2.0,72.0,0.024541099531960323,4,0.9591860000073211,1.1241614000027766,7,1.4456767999945441,1.5958251999982167,1,1.4491914999962319,1.649200399988331,,,72.0,69.0,24295,60.0,
-152,152,45,15,7,247,6,,,,,,,,,,,session,3730.2509513999976,126.0,2.0,72.0,0.024541099531960323,2,1.9465987000003224,2.1292734000016935,0,0.6676235000049928,0.7672208000003593,0,0.4881177000061143,0.6672742999944603,,,69.0,48.0,24295,60.0,
-152,152,0,15,8,248,5,,,,,,,,,,,session,3739.3937762999994,144.0,2.0,72.0,0.024541099531960323,3,1.9977959999960149,2.1129664999898523,6,0.8829002999991644,1.0329496000049403,0,1.1443032999959541,1.3443714000022737,,,60.0,63.0,24295,60.0,
152,152,-45,15,9,249,0,,,,,,,,,,,session,3750.0151677999966,138.0,2.0,72.0,0.024541099531960323,5,3.518285400001332,3.685932199994568,0,2.3662267999898177,2.5883458999887807,0,1.30462599999737,1.7547073000023374,,,66.0,69.0,24295,60.0,
152,152,0,15,10,250,1,,,,,,,,,,,session,3764.0459260999924,138.0,2.0,72.0,0.024541099531960323,3,2.7924548000009963,2.959220600008848,7,1.13317059999099,1.2832332999969367,0,2.0827369000035105,2.2328686000109883,,,51.0,51.0,24295,60.0,
152,-152,45,15,11,251,10,,,,,,,,,,,session,3775.9698157999956,138.0,2.0,72.0,0.024541099531960323,4,2.930679199998849,3.0807940999948187,6,0.4563907999981893,0.6272679999965476,0,0.8604698999988614,1.0437813000025926,,,57.0,57.0,24295,60.0,
-152,-152,0,15,12,252,13,,,,,,,,,,,session,3786.3793000000005,138.0,2.0,72.0,0.024541099531960323,3,2.7047782000008738,2.887277499990887,7,2.729707499995129,2.9131574999919394,0,1.3642491999926278,1.4976711999916006,,,51.0,63.0,24295,60.0,
152,152,45,15,13,253,2,,,,,,,,,,,session,3799.3371595999924,132.0,2.0,72.0,0.024541099531960323,2,2.3345928999915486,2.5298113000026206,1,2.1073904000077164,2.326859399996465,0,1.263597099998151,1.4134124999982305,,,57.0,72.0,24295,60.0,
152,152,90,15,14,254,3,,,,,,,,,,,session,3811.4332403000008,180.0,2.0,72.0,0.024541099531960323,5,0.8801215000130469,1.0114312000077916,6,0.48138319999270607,0.680603799992241,1,2.326862300003995,2.4936202999961097,,,54.0,57.0,24295,60.0,
-152,-152,-45,15,15,255,12,,,,,,,,,,,session,3821.9367531000025,150.0,2.0,72.0,0.024541099531960323,3,2.212485600000946,2.391628099998343,0,1.8934464000049047,2.06107310000516,0,0.448540099998354,0.5988648000056855,,,48.0,66.0,24295,60.0,
152,-152,-45,16,0,256,8,,,,,,,,,,,session,3832.8668154999905,132.0,2.0,72.0,0.024541099531960323,4,3.9512902999995276,4.219311500011827,6,0.5136425999953644,0.6636334999930114,0,0.6256826000026194,0.7436008999939077,,,69.0,63.0,24295,60.0,
152,152,0,16,1,257,1,,,,,,,,,,,session,3844.3714454,162.0,2.0,72.0,0.024541099531960323,2,2.6016973000077996,2.685119500005385,1,2.079227800000808,2.278827400004957,0,1.329811300005531,1.5769002000015462,,,54.0,63.0,24295,60.0,
-152,-152,90,16,2,258,15,,,,,,,,,,,session,3857.0453559000016,144.0,2.0,72.0,0.024541099531960323,3,1.2267264999973122,1.3749027000012575,6,2.148927399990498,2.249338199995691,1,1.2118639999971492,1.3785677999985637,,,69.0,48.0,24295,60.0,
152,-152,0,16,3,259,9,,,,,,,,,,,session,3867.8550388000003,180.0,2.0,72.0,0.024541099531960323,4,3.9390860999992583,4.071631600003457,1,0.4264927999902284,0.6099885000003269,0,0.43284930000663735,0.5836815000075148,,,63.0,63.0,24295,60.0,
152,-152,0,16,3,259,9,,,materials/instructions\12_break.png,3880.211058899993,3911.936791100001,0,31.57350939999742,31.723650899992208,0.021259100001771003,31.73134760001267,,,,,,,,,,,,,,,,,,,,24295,60.0,
152,-152,45,16,4,260,10,,,,,,,,,,,session,3911.9524948999897,132.0,2.0,72.0,0.024541099531960323,4,0.7177670999953989,0.8965838000003714,7,0.3786426000006031,0.5784843000001274,6,1.9001026000041747,2.0834037000022363,,,63.0,72.0,24295,60.0,
152,152,-45,16,5,261,0,,,,,,,,,,,session,3921.7356913999974,174.0,2.0,72.0,0.024541099531960323,3,1.8145035999914398,1.9311155000032159,1,0.4439414999942528,0.6107379000022775,0,2.1852393000008306,2.302309199993033,,,63.0,51.0,24295,60.0,
-152,152,-45,16,6,262,4,,,,,,,,,,,session,3932.8398646999995,156.0,2.0,72.0,0.024541099531960323,5,2.686446000006981,2.8736046999983955,1,0.7097280000016326,0.8767214999970747,0,0.49707859999034554,0.7305608999886317,,,66.0,60.0,24295,60.0,
-152,-152,45,16,7,263,14,,,,,,,,,,,session,3943.531306299992,138.0,2.0,72.0,0.024541099531960323,5,2.5734213999967324,2.673496499992325,0,1.447192100007669,1.6306673000071896,0,1.0963558000075864,1.3143478999991203,,,72.0,69.0,24295,60.0,
-152,152,45,16,8,264,6,,,,,,,,,,,session,3955.239375399993,162.0,2.0,72.0,0.024541099531960323,3,3.1386125999997603,3.2689456999942195,6,0.531199299992295,0.6631379000027664,0,0.6277753999893321,0.7449678999983007,,,51.0,51.0,24295,60.0,
-152,152,90,16,9,265,7,,,,,,,,,,,session,3965.9665187999926,156.0,2.0,72.0,0.024541099531960323,5,1.712941800011322,1.845606900009443,7,0.7781940999993822,0.8949902000022121,0,0.7690490000095451,0.9834626000083517,,,54.0,57.0,24295,60.0,
152,152,90,16,10,266,3,,,,,,,,,,,session,3975.5880859000026,168.0,2.0,72.0,0.024541099531960323,3,1.4716867999959504,1.5955939999985276,1,0.7278415999899153,0.8779087000002619,0,0.6633819999988191,0.797996699999203,,,66.0,60.0,24295,60.0,
-152,-152,-45,16,11,267,12,,,,,,,,,,,session,3985.219308300002,168.0,2.0,72.0,0.024541099531960323,3,1.196818099997472,1.3452418000088073,6,4.38411559999804,4.532192999991821,0,0.5316008999943733,0.732841200006078,,,66.0,69.0,24295,60.0,
-152,152,0,16,12,268,5,,,,,,,,,,,session,3998.3400060999993,174.0,2.0,72.0,0.024541099531960323,5,2.4650797999929637,2.6648818999965442,0,2.9463018999958877,3.1117258000012953,0,1.6735113999893656,1.8564550000010058,,,54.0,66.0,24295,60.0,
152,152,45,16,13,269,2,,,,,,,,,,,session,4012.3335515999934,126.0,2.0,72.0,0.024541099531960323,4,3.5768698000028962,3.710099000003538,6,1.3837598000100115,1.5168749000004027,0,0.6990002999955323,0.914775199998985,,,60.0,69.0,24295,60.0,
152,-152,90,16,14,270,11,,,,,,,,,,,session,4024.176817300002,138.0,2.0,72.0,0.024541099531960323,3,2.591896700003417,2.8417438000033144,7,1.0253488999878755,1.1917971999937436,0,0.47872739999729674,0.6789012999943225,,,63.0,51.0,24295,60.0,
-152,-152,0,16,15,271,13,,,,,,,,,,,session,4035.1335240999906,168.0,2.0,72.0,0.024541099531960323,5,2.8198962999886135,3.0171374999918044,1,1.478772000002209,1.6128983000089647,0,1.7961973000055877,1.9293978000059724,,,48.0,69.0,24295,60.0,
-152,-152,90,17,0,272,15,,,,,,,,,,,session,4047.896740199998,126.0,2.0,72.0,0.024541099531960323,4,1.1907542999979341,1.3594264999992447,7,0.7778419999958714,0.927844300007564,0,0.6606268000032287,0.8429701999993995,,,63.0,66.0,24295,60.0,
-152,152,-45,17,1,273,4,,,,,,,,,,,session,4057.1503112999926,150.0,2.0,72.0,0.024541099531960323,2,4.367503899993608,4.533723499989719,1,0.542290099998354,0.692309899997781,0,5.156165600012173,5.322841100001824,,,57.0,54.0,24295,60.0,
152,-152,45,17,2,274,10,,,,,,,,,,,session,4073.5021610999975,180.0,2.0,72.0,0.024541099531960323,4,2.978266699996311,3.1784132000029786,6,1.6821950000012293,1.8825947000004817,0,0.5638552000018535,0.7973479999927804,,,51.0,57.0,24295,60.0,
-152,-152,45,17,3,275,14,,,,,,,,,,,session,4085.605406399991,156.0,2.0,72.0,0.024541099531960323,3,0.6149249000009149,0.8650106999994023,7,1.1742682999902172,1.3090204000036465,6,2.277405300003011,2.410791000002064,,,63.0,51.0,24295,60.0,
-152,-152,0,17,4,276,13,,,,,,,,,,,session,4096.135230200001,132.0,2.0,72.0,0.024541099531960323,3,2.097508299993933,2.279951099990285,6,1.7142907999950694,1.9477963999961503,0,0.7951815999986138,0.9778202000015881,,,60.0,69.0,24295,60.0,
152,152,-45,17,5,277,0,,,,,,,,,,,session,4107.154107800001,144.0,2.0,72.0,0.024541099531960323,5,1.3312519999890355,1.5509143999952357,6,1.8547504000016488,1.9428365000057966,0,1.6308942999894498,0.010969099996145815,,,48.0,72.0,24295,60.0,
152,152,0,17,6,278,1,,,,,,,,,,,session,4118.173187299995,144.0,2.0,72.0,0.024541099531960323,3,2.778799000006984,2.978751900009229,6,1.9312638000119478,2.064713000014308,0,1.0602282000036212,1.2933257999975467,,,72.0,48.0,24295,60.0,
-152,152,45,17,7,279,6,,,,,,,,,,,session,4130.388642199992,138.0,2.0,72.0,0.024541099531960323,4,3.4210189000004902,3.571324500007904,7,1.2776775999955134,1.4110073000047123,1,1.3790033999976004,1.514775899995584,,,48.0,57.0,24295,60.0,
-152,152,45,17,7,279,6,,,materials/instructions\12_break.png,4142.424202399998,4189.434608299998,0,46.856534399994416,47.008155299990904,0.025204999998095445,47.01414659999136,,,,,,,,,,,,,,,,,,,,24295,60.0,
152,-152,90,17,8,280,11,,,,,,,,,,,session,4189.449011999997,162.0,2.0,72.0,0.024541099531960323,3,1.3781323000002885,1.5125322000094457,6,2.478303500000038,2.6112337000085972,0,0.8308692999999039,1.0152613000100246,,,72.0,48.0,24295,60.0,
152,-152,0,17,9,281,9,,,,,,,,,,,session,4200.744484099996,132.0,2.0,72.0,0.024541099531960323,3,2.1710141000075964,2.340588500010199,6,0.7275096999946982,0.8109649999969406,0,4.398966399996425,4.632440799992764,,,48.0,57.0,24295,60.0,
152,152,90,17,10,282,3,,,,,,,,,,,session,4214.589332699994,174.0,2.0,72.0,0.024541099531960323,2,4.713603999989573,4.93254049999814,1,2.6749395999941044,3.15706099999079,0,1.507950700004585,1.6579449999990175,,,72.0,60.0,24295,60.0,
-152,-152,-45,17,11,283,12,,,,,,,,,,,session,4230.901110199993,180.0,2.0,72.0,0.024541099531960323,2,2.1768466000066837,2.2953640000050655,1,0.7294930999923963,0.8793964999931632,0,1.5966311999945901,1.779594099993119,,,66.0,48.0,24295,60.0,
152,152,45,17,12,284,2,,,,,,,,,,,session,4242.208527399998,126.0,2.0,72.0,0.024541099531960323,5,1.4875326000037603,1.699196400004439,7,0.3873506000090856,0.5874359000008553,0,1.5753235000011045,1.8071074999897974,,,60.0,60.0,24295,60.0,
152,-152,-45,17,13,285,8,,,,,,,,,,,session,4251.884033900002,180.0,2.0,72.0,0.024541099531960323,2,1.9613008000014815,2.113334300011047,1,1.6165801999886753,1.7333599999983562,0,4.736151400007657,4.9532461000053445,,,72.0,48.0,24295,60.0,
-152,152,90,17,14,286,7,,,,,,,,,,,session,4267.1441979999945,150.0,2.0,72.0,0.024541099531960323,5,3.549499200002174,3.699550999997882,1,3.1798523999896133,3.380038599992986,0,2.9975008000037633,3.1814089999970747,,,54.0,48.0,24295,60.0,
-152,152,0,17,15,287,5,,,,,,,,,,,session,4283.773874299994,180.0,2.0,72.0,0.024541099531960323,2,4.4177346999931615,4.65095699999074,1,3.3885640000080457,3.5891932000085944,0,0.8635021000081906,1.0968815000087488,,,66.0,63.0,24295,60.0,
152,-152,0,18,0,288,9,,,,,,,,,,,session,4299.721066899991,138.0,2.0,72.0,0.024541099531960323,3,1.5597578000015346,1.6765228000003844,6,1.4486541000078432,1.7180192000087118,0,1.8671835999994073,2.1174299999984214,,,72.0,60.0,24295,60.0,
152,-152,45,18,1,289,10,,,,,,,,,,,session,4311.163090100003,132.0,2.0,72.0,0.024541099531960323,2,4.4741645000030985,4.60781999999017,7,2.3603338999964762,2.4780835999990813,0,1.4622360000066692,1.6295484000002034,,,57.0,48.0,24295,60.0,
152,152,0,18,2,290,1,,,,,,,,,,,session,4325.922809900003,156.0,2.0,72.0,0.024541099531960323,5,2.198634899992612,2.33217059999879,6,1.473113400003058,1.623003200002131,0,2.8892104999977164,3.086408899995149,,,66.0,48.0,24295,60.0,
152,152,-45,18,3,291,0,,,,,,,,,,,session,4338.918933699999,150.0,2.0,72.0,0.024541099531960323,3,5.080083399996511,5.197445899990271,1,1.8619347999920137,1.9954610999993747,0,1.2211711999989348,1.3721461999957683,,,54.0,48.0,24295,60.0,
-152,-152,45,18,4,292,14,,,,,,,,,,,session,4353.144023300003,150.0,2.0,72.0,0.024541099531960323,5,1.5765928000037093,1.6889781000063522,1,3.5128740000072867,3.6637988000002224,0,0.5073341000097571,0.6400577000022167,,,48.0,60.0,24295,60.0,
152,-152,-45,18,5,293,8,,,,,,,,,,,session,4365.234613499997,132.0,2.0,72.0,0.024541099531960323,2,4.498651000001701,4.649021899997024,6,1.8903828999900725,1.9403755999956047,0,0.4961925999959931,0.6296396999969147,,,72.0,51.0,24295,60.0,
152,-152,90,18,6,294,11,,,,,,,,,,,session,4378.162184000001,144.0,2.0,72.0,0.024541099531960323,4,1.1862954999960493,1.4717023999983212,7,1.008676999990712,1.2258216999907745,1,2.146591900003841,2.2793346000107704,,,54.0,69.0,24295,60.0,
-152,152,45,18,7,295,6,,,,,,,,,,,session,4389.721360700001,144.0,2.0,72.0,0.024541099531960323,4,1.2458448999968823,1.5627698000025703,6,2.7509992999985116,2.8842404000024544,0,0.8954494000063278,1.0561771000066074,,,54.0,54.0,24295,60.0,
-152,-152,0,18,8,296,13,,,,,,,,,,,session,4400.866474800001,156.0,2.0,72.0,0.024541099531960323,3,2.974830599996494,3.1746194000006653,6,1.2126155000005383,1.4277497000002768,0,1.713510400004452,1.8634509999974398,,,57.0,69.0,24295,60.0,
-152,-152,90,18,9,297,15,,,,,,,,,,,session,4414.022859599994,138.0,2.0,72.0,0.024541099531960323,3,3.0747249999985797,3.2237592000019504,7,1.039037800001097,1.2496556999976747,0,0.6535418999992544,0.7582475999952294,,,57.0,54.0,24295,60.0,
152,152,45,18,10,298,2,,,,,,,,,,,session,4424.8720746000035,162.0,2.0,72.0,0.024541099531960323,2,1.364611299999524,1.515389399995911,6,0.7445438000140712,0.8945820000080857,0,0.5773803000047337,0.777516200003447,,,48.0,69.0,24295,60.0,
-152,-152,-45,18,11,299,12,,,,,,,,,,,session,4434.171206600004,174.0,2.0,72.0,0.024541099531960323,2,2.3979415000067092,2.5480232999980217,1,2.6466546000010567,2.8317986000038218,0,2.3299740999937057,2.5092533999995794,,,48.0,51.0,24295,60.0,
-152,-152,-45,18,11,299,12,,,materials/instructions\12_break.png,4448.117853799995,4478.150625499999,0,29.89917050000804,30.03056880000804,0.019643199993879534,30.038221800001338,,,,,,,,,,,,,,,,,,,,24295,60.0,
-152,152,90,18,12,300,7,,,,,,,,,,,session,4478.165482800003,180.0,2.0,72.0,0.024541099531960323,2,0.8371547999995528,1.004131800000323,6,1.4303290999960154,1.5622906999924453,1,0.6780494999984512,0.9108990000095218,,,66.0,66.0,24295,60.0,
-152,152,0,18,13,301,5,,,,,,,,,,,session,4488.3119391999935,162.0,2.0,72.0,0.024541099531960323,2,1.3718693999981042,1.6241949999966891,1,1.668804300003103,1.8012428000074578,0,1.9764924000046449,2.211135599995032,,,54.0,72.0,24295,60.0,
152,152,90,18,14,302,3,,,,,,,,,,,session,4500.7070330999995,150.0,2.0,72.0,0.024541099531960323,4,3.004395399999339,3.1724020000110613,6,1.3857803999999305,1.6051139999908628,0,2.5376553000096465,2.737813300002017,,,51.0,69.0,24295,60.0,
-152,152,-45,18,15,303,4,,,,,,,,,,,session,4514.185873099996,144.0,2.0,72.0,0.024541099531960323,2,3.964719299998251,4.130447899995488,0,1.0805336000048555,1.2306228000088595,0,0.6165161999961128,0.8331464999937452,,,57.0,57.0,24295,60.0,
152,152,45,19,0,304,2,,,,,,,,,,,session,4526.1405123,180.0,2.0,72.0,0.024541099531960323,5,2.6344656000001123,2.816735800006427,0,1.9350205999944592,2.105698700004723,0,2.378410699995584,2.7458095000038156,,,48.0,48.0,24295,60.0,
-152,152,0,19,1,305,5,,,,,,,,,,,session,4539.87395909999,144.0,2.0,72.0,0.024541099531960323,4,6.5119441999995615,6.678703600002336,6,0.9252915000106441,1.0753046000027098,0,1.610521399998106,1.7605571999883978,,,69.0,66.0,24295,60.0,
152,152,0,19,2,306,1,,,,,,,,,,,session,4555.479783399991,132.0,2.0,72.0,0.024541099531960323,3,2.6886086000013165,2.838191899994854,6,1.2444567999918945,1.3617570999922464,0,1.063342699999339,1.2112990000023274,,,63.0,69.0,24295,60.0,
152,-152,45,19,3,307,10,,,,,,,,,,,session,4567.238810800001,156.0,2.0,72.0,0.024541099531960323,3,4.998636700009229,5.23304440001084,1,0.90612259999034,1.0992889999906765,0,2.6483884999906877,2.9458405999903334,,,51.0,48.0,24295,60.0,
152,-152,90,19,4,308,11,,,,,,,,,,,session,4582.254648699993,180.0,2.0,72.0,0.024541099531960323,5,2.318914000003133,2.4493188000051305,6,0.39274989999830723,0.5087525999988429,0,4.683482499996899,4.783421100000851,,,48.0,48.0,24295,60.0,
-152,152,45,19,5,309,6,,,,,,,,,,,session,4596.061686200002,174.0,2.0,72.0,0.024541099531960323,4,2.70747300000221,2.8212408000108553,6,1.7141701999935322,1.8976694000011776,0,0.49322960000426974,0.6769093000038993,,,63.0,72.0,24295,60.0,
-152,152,90,19,6,310,7,,,,,,,,,,,session,4608.4212119,162.0,2.0,72.0,0.024541099531960323,4,3.915135300005204,4.216276799998013,7,4.4340116000093985,4.607184200009215,0,1.2420854000083636,1.354701100004604,,,66.0,57.0,24295,60.0,
152,152,90,19,7,311,3,,,,,,,,,,,session,4624.803475099994,162.0,2.0,72.0,0.024541099531960323,4,5.013205499999458,5.198638799993205,1,0.7284073999908287,0.878491399998893,0,1.49490100001276,1.6968464000092354,,,66.0,60.0,24295,60.0,
152,-152,-45,19,8,312,8,,,,,,,,,,,session,4638.844373200001,156.0,2.0,72.0,0.024541099531960323,2,2.9753698999993503,3.0799923000013223,1,0.7925372000026982,1.192808399995556,0,8.96952610000153,9.153024100000039,,,60.0,69.0,24295,60.0,
152,152,-45,19,9,313,0,,,,,,,,,,,session,4658.494933499998,168.0,2.0,72.0,0.024541099531960323,2,2.0904961000051117,2.256614300000365,1,0.7872150999901351,0.9204155999905197,0,1.0273027999937767,1.210004199994728,,,60.0,48.0,24295,60.0,
-152,-152,-45,19,10,314,12,,,,,,,,,,,session,4668.957521599994,144.0,2.0,72.0,0.024541099531960323,3,1.5291634000022896,1.7281809999985853,1,1.195558899999014,1.3790607999981148,1,3.530593100003898,3.6474058000021614,,,48.0,60.0,24295,60.0,
-152,-152,90,19,11,315,15,,,,,,,,,,,session,4681.375596099999,180.0,2.0,72.0,0.024541099531960323,5,1.198944500007201,1.3812407000077656,0,0.4426400999946054,0.6209478999953717,0,0.6913785999931861,0.7918473999889102,,,63.0,54.0,24295,60.0,
-152,-152,0,19,12,316,13,,,,,,,,,,,session,4690.587031599993,126.0,2.0,72.0,0.024541099531960323,5,1.4818713999993633,1.7153912999929162,6,1.7962704000092344,1.9298165000072913,0,1.7481761000090046,1.9152415999997174,,,57.0,57.0,24295,60.0,
-152,152,-45,19,13,317,4,,,,,,,,,,,session,4701.609230200003,150.0,2.0,72.0,0.024541099531960323,4,1.3582195000053616,1.4714480000111507,7,2.061574199993629,2.2037929999933112,0,1.9139220000070054,2.063547700003255,,,66.0,69.0,24295,60.0,
152,-152,0,19,14,318,9,,,,,,,,,,,session,4713.558713599996,156.0,2.0,72.0,0.024541099531960323,2,1.680549600001541,1.864018499996746,6,1.481296800004202,1.6647179999999935,0,1.4976080000051297,1.664225800006534,,,51.0,57.0,24295,60.0,
-152,-152,45,19,15,319,14,,,,,,,,,,,session,4724.6130283999955,180.0,2.0,72.0,0.024541099531960323,2,2.423469400004251,2.589654299998074,0,2.3761999999987893,2.5096279999997932,0,1.2590709999931278,1.4098013000038918,,,54.0,57.0,24295,60.0,
-152,-152,45,19,15,319,14,,,materials/instructions\12_break.png,4737.444809799999,4750.878489199997,0,13.31256599999324,13.431420199995046,0.02510350001102779,13.437081299998681,,,,,,,,,,,,,,,,,,,,24295,60.0,
-152,-152,-45,20,0,320,12,,,,,,,,,,,session,4750.8917564,126.0,2.0,72.0,0.024541099531960323,5,1.3583799000043655,1.4926607000088552,0,0.474864499992691,0.6581411999941338,0,0.37809489999199286,0.5952032999921357,,,54.0,51.0,24295,60.0,
152,152,0,20,1,321,1,,,,,,,,,,,session,4758.973297999997,168.0,2.0,72.0,0.024541099531960323,5,1.746463200004655,1.8432042000058573,6,0.3476107000024058,0.5141311000043061,0,0.34861889999592677,0.5295459999906598,,,63.0,72.0,24295,60.0,
152,152,-45,20,2,322,0,,,,,,,,,,,session,4768.3572735999915,156.0,2.0,72.0,0.024541099531960323,3,1.9295596000010846,2.148130499990657,7,1.1512684000044828,1.3514657000050647,0,2.70507730000827,2.888495500010322,,,69.0,51.0,24295,60.0,
152,152,90,20,3,323,3,,,,,,,,,,,session,4780.8402031000005,156.0,2.0,72.0,0.024541099531960323,5,0.9133812000072794,1.0634636000031605,6,1.2626690000033705,1.4127428000065265,0,1.4126458999962779,1.6153502999950433,,,48.0,72.0,24295,60.0,
-152,-152,45,20,4,324,14,,,,,,,,,,,session,4790.9798523999925,144.0,2.0,72.0,0.024541099531960323,3,1.4952913000015542,1.6787220999976853,7,2.9248751000122866,3.125325300003169,0,2.2889643000089563,2.5072112000052584,,,63.0,60.0,24295,60.0,
-152,152,45,20,5,325,6,,,,,,,,,,,session,4804.190312099992,132.0,2.0,72.0,0.024541099531960323,4,1.592829500004882,1.758341399996425,1,3.0972290000063367,3.2488013000111096,0,1.2467287000035867,1.4288743000070099,,,66.0,54.0,24295,60.0,
-152,-152,0,20,6,326,13,,,,,,,,,,,session,4816.278924999991,156.0,2.0,72.0,0.024541099531960323,3,2.5900690000125905,2.790034400008153,6,1.6108146000042325,1.7314984999975422,0,2.7317616999935126,2.9650838999950793,,,48.0,66.0,24295,60.0,
-152,152,90,20,7,327,7,,,,,,,,,,,session,4829.706248399991,156.0,2.0,72.0,0.024541099531960323,3,1.912896699999692,2.179765100008808,1,5.9145131999976,6.039972899990971,0,1.8441850999952294,1.9275710999936564,,,57.0,51.0,24295,60.0,
152,152,45,20,8,328,2,,,,,,,,,,,session,4845.709920900001,150.0,2.0,72.0,0.024541099531960323,4,1.0893617999972776,1.223013999988325,6,1.2492077999922913,1.365839899997809,0,3.099974700002349,3.2992341999924975,,,57.0,54.0,24295,60.0,
152,-152,-45,20,9,329,8,,,,,,,,,,,session,4857.410231000002,174.0,2.0,72.0,0.024541099531960323,4,0.6936017999978503,0.9104288000089582,1,1.3737145000050077,1.5729684999969322,1,0.5388527999893995,0.7716464999975869,,,51.0,60.0,24295,60.0,
152,-152,90,20,10,330,11,,,,,,,,,,,session,4866.893386299998,156.0,2.0,72.0,0.024541099531960323,5,1.9833087000006344,2.0991636000107974,7,0.4940312999970047,0.7099693000054685,0,1.3121258999890415,1.5620678999985103,,,51.0,60.0,24295,60.0,
152,-152,45,20,11,331,10,,,,,,,,,,,session,4877.226613999999,180.0,2.0,72.0,0.024541099531960323,5,1.1339508999953978,1.2834573000000091,1,1.2335992000007536,1.3346680000104243,0,3.149715899999137,3.337231299999985,,,51.0,54.0,24295,60.0,
-152,-152,90,20,12,332,15,,,,,,,,,,,session,4889.376277999996,180.0,2.0,72.0,0.024541099531960323,4,1.0296002999966731,1.1786012999946252,7,1.2625142999895616,1.4482365000003483,0,1.4140107999992324,1.6147130000026664,,,51.0,54.0,24295,60.0,
-152,152,0,20,13,333,5,,,,,,,,,,,session,4899.826792099993,126.0,2.0,72.0,0.024541099531960323,5,1.3313399000035133,1.4629119000019273,1,1.146092899987707,1.3129965999978594,0,0.4274535000004107,0.7444170999951893,,,51.0,72.0,24295,60.0,
152,-152,0,20,14,334,9,,,,,,,,,,,session,4908.950532100003,180.0,2.0,72.0,0.024541099531960323,4,0.8874866999976803,1.087434499990195,0,0.47078719999990426,0.5851003999996465,1,0.9086121000000276,1.075409299999592,,,66.0,60.0,24295,60.0,
-152,152,-45,20,15,335,4,,,,,,,,,,,session,4918.791102599993,180.0,2.0,72.0,0.024541099531960323,3,1.4335831999924267,1.634200399988913,1,2.1802312999934657,2.3135704999876907,0,2.8857706999988295,3.086361900001066,,,72.0,66.0,24295,60.0,
152,-152,-45,21,0,336,8,,,,,,,,,,,session,4932.571946099997,174.0,2.0,72.0,0.024541099531960323,5,1.7371089000080246,1.9040473000059137,7,1.5450213000003714,1.6965711999946507,0,1.7431558999960544,1.9099044000031427,,,51.0,57.0,24295,60.0,
152,-152,0,21,1,337,9,,,,,,,,,,,session,4944.427415400001,174.0,2.0,72.0,0.024541099531960323,4,1.3984782000043197,1.5984500999911688,1,2.10542649999843,2.2553530000004685,0,1.7086232000001473,1.8455461000121431,,,72.0,66.0,24295,60.0,
