x,y,orientation,.thisRepN,.thisTrialN,.thisN,.thisIndex,.stepSize,.intensity,image_name,global_start_time,global_end_time,pressKey,pressRT,releaseRT,image_started,image_ended,name,globalTime,fixation_dur,stimulation_dur,post_fixation,opacity,locationResponse_pressKey,locationResponse_pressRT,locationResponse_releaseRT,orientationResponse_pressKey,orientationResponse_pressRT,orientationResponse_releaseRT,pasResponse_pressKey,pasResponse_pressRT,pasResponse_releaseRT,.response,finalOpacity,postLoc,postOri,ID,frameRate,
,,,0,-1,-1,0,0.0969100130080564,None,materials/instructions\1_welcome.png,2.5377652999013662,32.06659479998052,0,29.35842390009202,29.526905399980024,0.059466500068083405,29.52882679994218,,,,,,,,,,,,,,,,,,,,26839,60.0,
,,,0,-1,-1,0,0.0969100130080564,None,materials/instructions\2_instruction.png,32.123446099925786,64.82848919997923,0,32.59992129984312,32.70336049981415,0.012127400143072009,32.71034310013056,,,,,,,,,,,,,,,,,,,,26839,60.0,
,,,0,-1,-1,0,0.0969100130080564,None,materials/instructions\3_location_demo.png,64.8857626998797,72.88318299991079,0,7.842973599908873,7.995246199890971,0.025848499964922667,8.000114799942821,,,,,,,,,,,,,,,,,,,,26839,60.0,
,,,0,-1,-1,0,0.0969100130080564,None,materials/instructions\4_orientation_demo.png,72.93412719992921,88.36217239988036,0,15.242847100133076,15.426315600052476,0.01519809989258647,15.432554599829018,,,,,,,,,,,,,,,,,,,,26839,60.0,
,,,0,-1,-1,0,0.0969100130080564,None,materials/instructions\5_pas_demo.png,88.42231739987619,99.83613459998742,0,11.24288329994306,11.411604899913073,0.02333270013332367,11.416705300100148,,,,,,,,,,,,,,,,,,,,26839,60.0,
77,77,90,0,-1,-1,0,0.0969100130080564,None,,,,,,,,,session,99.84947920008563,162.0,2.0,72.0,1.0,5,1.7735029000323266,1.9247781001031399,6,2.3493953000288457,2.4955782000906765,7,3.9767708000727,4.146176600130275,,,,,26839,60.0,
77,77,45,0,-1,-1,0,0.0969100130080564,None,,,,,,,,,session,112.53416749997996,156.0,2.0,72.0,1.0,5,1.0871829001698643,1.2361145000904799,7,1.6836345999035984,1.9004810999613255,7,0.8991404001135379,1.049444500124082,,,,,26839,60.0,
77,77,0,0,-1,-1,0,0.0969100130080564,None,,,,,,,,,session,120.71832829993218,150.0,2.0,72.0,1.0,5,0.9502993000205606,1.133008699864149,0,1.8946596998721361,2.0609277000185102,7,1.494929599808529,1.8450022998731583,,,,,26839,60.0,
77,77,-45,0,-1,-1,0,0.0969100130080564,None,,,,,,,,,session,129.65002990001813,174.0,2.0,72.0,1.0,5,0.5848834000062197,0.767419199924916,1,1.384935799986124,1.534852199954912,6,1.0629350000526756,1.296608499949798,,,,,26839,60.0,
-77,77,-45,0,-1,-1,0,0.0969100130080564,None,,,,,,,,,session,137.6176100000739,132.0,2.0,72.0,1.0,2,0.9354492998681962,1.087719899835065,1,0.9537543000187725,1.1049061000812799,7,1.3492403000127524,1.5826781999785453,,,,,26839,60.0,
,,,0,-1,-1,0,0.0969100130080564,None,materials/instructions\10_staircase_start.png,145.0010379999876,157.029935099883,0,11.776665299898013,12.026790600037202,0.02077779988758266,12.034718599868938,,,,,,,,,,,,,,,,,,,,26839,60.0,
,,,0,0,-1,0,0.0969100130080564,0.2,,,,,,,,,staircase,157.04499859991483,138.0,2.0,72.0,0.2,,,,1,1.092575600137934,1.2762126999441534,,,,1,,,,26839,60.0,
,,,0,1,-1,0,0.0969100130080564,0.16,,,,,,,,,staircase,161.94871830008924,126.0,2.0,72.0,0.16,,,,7,1.339353600051254,1.5415602000430226,,,,1,,,,26839,60.0,
,,,0,2,-1,0,0.0969100130080564,0.128,,,,,,,,,staircase,166.90758690005168,138.0,2.0,72.0,0.128,,,,6,1.042804199969396,1.2521311999298632,,,,1,,,,26839,60.0,
,,,0,3,-1,0,0.0969100130080564,0.1024,,,,,,,,,staircase,171.80714450008236,150.0,2.0,72.0,0.1024,,,,6,0.6326683999504894,0.8329533999785781,,,,1,,,,26839,60.0,
,,,0,4,-1,0,0.0969100130080564,0.08192,,,,,,,,,staircase,177.0644185000565,162.0,2.0,72.0,0.08192,,,,0,0.6501259999349713,0.8993826999794692,,,,1,,,,26839,60.0,
,,,0,5,-1,0,0.0969100130080564,0.06553600000000001,,,,,,,,,staircase,181.98141129990108,126.0,2.0,72.0,0.06553600000000001,,,,1,0.639537800103426,0.8063878000248224,,,,1,,,,26839,60.0,
,,,0,6,-1,0,0.0969100130080564,0.05242880000000001,,,,,,,,,staircase,186.2013864000328,162.0,2.0,72.0,0.05242880000000001,,,,1,0.4016531999222934,0.5851199999451637,,,,1,,,,26839,60.0,
,,,0,7,-1,0,0.0969100130080564,0.04194304000000001,,,,,,,,,staircase,190.804824099876,138.0,2.0,72.0,0.04194304000000001,,,,6,1.5443024998530746,1.744383699959144,,,,1,,,,26839,60.0,
,,,0,8,-1,0,0.0969100130080564,0.03355443200000001,,,,,,,,,staircase,196.39988319994882,168.0,2.0,72.0,0.03355443200000001,,,,1,0.5582475999835879,0.7583248999435455,,,,1,,,,26839,60.0,
,,,0,9,-1,0,0.0969100130080564,0.026843545600000008,,,,,,,,,staircase,201.31836210004985,144.0,2.0,72.0,0.026843545600000008,,,,7,4.039535499876365,4.373193399980664,,,,1,,,,26839,60.0,
,,,0,10,-1,0,0.0969100130080564,0.021474836480000006,,,,,,,,,staircase,209.4192184000276,168.0,2.0,72.0,0.021474836480000006,,,,6,1.6066751999314874,1.8546599999535829,,,,1,,,,26839,60.0,
,,,0,11,-1,0,0.0969100130080564,0.017179869184000003,,,,,,,,,staircase,215.389886100078,150.0,2.0,72.0,0.017179869184000003,,,,7,0.6888835001736879,0.9027540001552552,,,,1,,,,26839,60.0,
,,,0,12,-1,0,0.0969100130080564,0.013743895347200002,,,,,,,,,staircase,220.66400959994644,180.0,2.0,72.0,0.013743895347200002,,,,6,5.924042199971154,6.1223225998692214,,,,0,,,,26839,60.0,
,,,0,13,-1,0,0.0969100130080564,0.017179869184000003,,,,,,,,,staircase,231.10265669994988,132.0,2.0,72.0,0.017179869184000003,,,,0,0.6066483999602497,0.7900978000834584,,,,1,,,,26839,60.0,
,,,0,14,-1,0,0.0969100130080564,0.013743895347200002,,,,,,,,,staircase,235.4222200999502,150.0,2.0,72.0,0.013743895347200002,,,,7,1.5857586998026818,1.8690358998719603,,,,0,,,,26839,60.0,
,,,0,15,-1,0,0.0969100130080564,0.013743895347200002,,,,,,,,,staircase,241.46689249994233,132.0,2.0,72.0,0.013743895347200002,,,,7,1.2701161000877619,1.5868711001239717,,,,1,,,,26839,60.0,
,,,0,16,-1,0,0.0969100130080564,0.010995116277760002,,,,,,,,,staircase,246.59941189992242,162.0,2.0,72.0,0.010995116277760002,,,,7,2.1450416001025587,2.377751799998805,,,,0,,,,26839,60.0,
,,,0,17,-1,0,0.0969100130080564,0.010995116277760002,,,,,,,,,staircase,253.00177660002373,168.0,2.0,72.0,0.010995116277760002,,,,7,1.2089068000204861,1.5247352998703718,,,,0,,,,26839,60.0,
,,,0,18,-1,0,0.0969100130080564,0.013743895347200002,,,,,,,,,staircase,258.64015059988014,150.0,2.0,72.0,0.013743895347200002,,,,7,1.7989516998641193,2.0849385000765324,,,,0,,,,26839,60.0,
,,,0,19,-1,0,0.0969100130080564,0.013743895347200002,,,,,,,,,staircase,265.21630569989793,150.0,2.0,72.0,0.013743895347200002,,,,7,1.2504952000454068,1.5677161000203341,,,,1,,,,26839,60.0,
,,,0,20,-1,0,0.0969100130080564,0.010995116277760002,,,,,,,,,staircase,270.61601969995536,174.0,2.0,72.0,0.010995116277760002,,,,7,1.271730599924922,1.5709404000081122,,,,0,,,,26839,60.0,
,,,0,21,-1,0,0.0969100130080564,0.010995116277760002,,,,,,,,,staircase,276.4034879999235,174.0,2.0,72.0,0.010995116277760002,,,,7,1.014753800118342,1.3150049999821931,,,,1,,,,26839,60.0,
,,,0,22,-1,0,0.0969100130080564,0.008796093022208,,,,,,,,,staircase,281.94123800005764,162.0,2.0,72.0,0.008796093022208,,,,7,1.5815924999769777,1.9652256998233497,,,,1,,,,26839,60.0,
,,,0,23,-1,0,0.0969100130080564,0.007036874417766401,,,,,,,,,staircase,288.59862200007774,180.0,2.0,72.0,0.007036874417766401,,,,7,0.7995388999115676,1.0829821000806987,,,,0,,,,26839,60.0,
,,,0,24,-1,0,0.0969100130080564,0.007036874417766401,,,,,,,,,staircase,294.0001040000934,162.0,2.0,72.0,0.007036874417766401,,,,7,0.7930436001624912,1.077827600063756,,,,0,,,,26839,60.0,
,,,0,25,-1,0,0.0969100130080564,0.008796093022208,,,,,,,,,staircase,299.10454090009443,138.0,2.0,72.0,0.008796093022208,,,,7,0.6329240000341088,0.84950130013749,,,,1,,,,26839,60.0,
,,,0,26,-1,0,0.0969100130080564,0.007036874417766401,,,,,,,,,staircase,303.5735190999694,162.0,2.0,72.0,0.007036874417766401,,,,7,0.720443099969998,0.9705603998154402,,,,0,,,,26839,60.0,
,,,0,27,-1,0,0.0969100130080564,0.007036874417766401,,,,,,,,,staircase,309.1666236000601,150.0,2.0,72.0,0.007036874417766401,,,,7,0.8728465000167489,1.1562799999956042,,,,1,,,,26839,60.0,
,,,0,28,-1,0,0.0969100130080564,0.00562949953421312,,,,,,,,,staircase,314.134456000058,144.0,2.0,72.0,0.00562949953421312,,,,7,0.9550590999424458,1.236573299858719,,,,0,,,,26839,60.0,
,,,0,29,-1,0,0.0969100130080564,0.00562949953421312,,,,,,,,,staircase,319.08582379994914,132.0,2.0,72.0,0.00562949953421312,,,,7,0.687368200160563,0.9541308002080768,,,,0,,,,26839,60.0,
,,,0,30,-1,0,0.0969100130080564,0.007036874417766401,,,,,,,,,staircase,323.5555682000704,138.0,2.0,72.0,0.007036874417766401,,,,7,0.6742720999754965,0.9409418001305312,,,,0,,,,26839,60.0,
,,,0,31,-1,0,0.0969100130080564,0.007036874417766401,,,,,,,,,staircase,328.3953374000266,156.0,2.0,72.0,0.007036874417766401,,,,7,1.205318700056523,1.541658200090751,,,,0,,,,26839,60.0,
,,,0,32,-1,0,0.0969100130080564,0.008796093022208,,,,,,,,,staircase,333.9678754999768,168.0,2.0,72.0,0.008796093022208,,,,7,0.9196099999826401,1.5041561999823898,,,,0,,,,26839,60.0,
,,,0,33,-1,0,0.0969100130080564,0.008796093022208,,,,,,,,,staircase,339.58521779999137,156.0,2.0,72.0,0.008796093022208,,,,7,0.5259148001205176,0.7595657999627292,,,,0,,,,26839,60.0,
,,,0,34,-1,0,0.0969100130080564,0.010995116277760002,,,,,,,,,staircase,344.273380999919,144.0,2.0,72.0,0.010995116277760002,,,,7,0.488143399823457,0.729942699894309,,,,0,,,,26839,60.0,
,,,0,35,-1,0,0.0969100130080564,0.010995116277760002,,,,,,,,,staircase,348.8000487999525,168.0,2.0,72.0,0.010995116277760002,,,,7,0.6911430999170989,0.9709813999943435,,,,1,,,,26839,60.0,
,,,0,36,-1,0,0.0969100130080564,0.008796093022208,,,,,,,,,staircase,354.38170480006374,156.0,2.0,72.0,0.008796093022208,,,,7,1.156948999967426,1.4250056999735534,,,,0,,,,26839,60.0,
,,,0,37,-1,0,0.0969100130080564,0.008796093022208,,,,,,,,,staircase,359.7201560998801,150.0,2.0,72.0,0.008796093022208,,,,7,0.9158654999919236,1.367072599940002,,,,1,,,,26839,60.0,
,,,0,38,-1,0,0.0969100130080564,0.007036874417766401,,,,,,,,,staircase,364.90513289999217,144.0,2.0,72.0,0.007036874417766401,,,,7,3.280306400032714,3.513710099970922,,,,1,,,,26839,60.0,
,,,0,39,-1,0,0.0969100130080564,0.00562949953421312,,,,,,,,,staircase,372.13370190002024,156.0,2.0,72.0,0.00562949953421312,,,,7,1.1517901001498103,1.4189126000273973,,,,0,,,,26839,60.0,
,,,0,40,-1,0,0.0969100130080564,0.00562949953421312,,,,,,,,,staircase,377.66593350004405,150.0,2.0,72.0,0.00562949953421312,,,,7,0.8497449001297355,1.1324915001168847,,,,0,,,,26839,60.0,
,,,0,41,-1,0,0.0969100130080564,0.007036874417766401,,,,,,,,,staircase,382.6173390999902,174.0,2.0,72.0,0.007036874417766401,,,,7,2.1880083000287414,2.471313799964264,,,,1,,,,26839,60.0,
,,,0,42,-1,0,0.0969100130080564,0.00562949953421312,,,,,,,,,staircase,389.3067896000575,180.0,2.0,72.0,0.00562949953421312,,,,0,4.851655500009656,5.035189399961382,,,,0,,,,26839,60.0,
,,,0,43,-1,0,0.0969100130080564,0.00562949953421312,,,,,,,,,staircase,398.98444760008715,150.0,2.0,72.0,0.00562949953421312,,,,0,3.0050029000267386,3.2218397001270205,,,,1,,,,26839,60.0,
,,,0,44,-1,0,0.0969100130080564,0.004503599627370496,,,,,,,,,staircase,406.01847420004196,168.0,2.0,72.0,0.004503599627370496,,,,0,0.7550135001074523,0.9720105000305921,,,,0,,,,26839,60.0,
,,,0,45,-1,0,0.0969100130080564,0.004503599627370496,,,,,,,,,staircase,411.108145999955,144.0,2.0,72.0,0.004503599627370496,,,,0,1.6027253000065684,1.9147493001073599,,,,0,,,,26839,60.0,
,,,0,46,-1,0,0.0969100130080564,0.00562949953421312,,,,,,,,,staircase,416.8797537998762,156.0,2.0,72.0,0.00562949953421312,,,,0,5.221868599997833,5.455352299846709,,,,0,,,,26839,60.0,
,,,0,47,-1,0,0.0969100130080564,0.00562949953421312,,,,,,,,,staircase,426.36828049994074,138.0,2.0,72.0,0.00562949953421312,,,,0,0.8581273001618683,1.0254482000600547,,,,0,,,,26839,60.0,
,,,0,48,-1,0,0.0969100130080564,0.007036874417766401,,,,,,,,,staircase,431.02212490001693,132.0,2.0,72.0,0.007036874417766401,,,,0,2.037709099939093,2.287623800104484,,,,1,,,,26839,60.0,
,,,0,49,-1,0,0.0969100130080564,0.00562949953421312,,,,,,,,,staircase,436.82514180010185,138.0,2.0,72.0,0.00562949953421312,,,,0,0.780256099998951,0.9991667999420315,,,,0,,,,26839,60.0,
,,,0,50,-1,0,0.0969100130080564,0.00562949953421312,,,,,,,,,staircase,442.00113849993795,162.0,2.0,72.0,0.00562949953421312,,,,0,0.6016617999412119,0.7359746000729501,,,,1,,,,26839,60.0,
,,,0,51,-1,0,0.0969100130080564,0.004503599627370496,,,,,,,,,staircase,446.75212890002877,150.0,2.0,72.0,0.004503599627370496,,,,0,0.549490800127387,0.6996305000502616,,,,1,,,,26839,60.0,
,,,0,52,-1,0,0.0969100130080564,0.003602879701896397,,,,,,,,,staircase,451.2696956999134,168.0,2.0,72.0,0.003602879701896397,,,,0,0.5098218999337405,0.7910783998668194,,,,0,,,,26839,60.0,
,,,0,53,-1,0,0.0969100130080564,0.003602879701896397,,,,,,,,,staircase,456.1910647000186,174.0,2.0,72.0,0.003602879701896397,,,,6,1.8610652999486774,2.097459299955517,,,,0,,,,26839,60.0,
,,,0,54,-1,0,0.0969100130080564,0.004503599627370496,,,,,,,,,staircase,463.01860999991186,168.0,2.0,72.0,0.004503599627370496,,,,6,0.9355349000543356,1.135691000148654,,,,0,,,,26839,60.0,
,,,0,55,-1,0,0.0969100130080564,0.004503599627370496,,,,,,,,,staircase,468.28333289991133,180.0,2.0,72.0,0.004503599627370496,,,,0,2.7369558000937104,3.0045541001018137,,,,0,,,,26839,60.0,
,,,0,56,-1,0,0.0969100130080564,0.00562949953421312,,,,,,,,,staircase,475.6064834999852,180.0,2.0,72.0,0.00562949953421312,,,,0,0.46735990000888705,0.6508720000274479,,,,0,,,,26839,60.0,
,,,0,57,-1,0,0.0969100130080564,0.00562949953421312,,,,,,,,,staircase,480.5752081000246,138.0,2.0,72.0,0.00562949953421312,,,,1,1.4303310001268983,1.6639382001012564,,,,0,,,,26839,60.0,
,,,0,58,-1,0,0.0969100130080564,0.007036874417766401,,,,,,,,,staircase,486.4345783998724,144.0,2.0,72.0,0.007036874417766401,,,,0,0.6485814999323338,0.7985511999577284,,,,0,,,,26839,60.0,
,,,0,59,-1,0,0.0969100130080564,0.007036874417766401,,,,,,,,,staircase,490.9515503998846,180.0,2.0,72.0,0.007036874417766401,,,,0,0.4488695999607444,0.6156500999350101,,,,0,,,,26839,60.0,
,,,0,60,-1,0,0.0969100130080564,0.008796093022208,,,,,,,,,staircase,495.90377099998295,150.0,2.0,72.0,0.008796093022208,,,,6,2.072608199901879,2.2722917997743934,,,,0,,,,26839,60.0,
,,,0,61,-1,0,0.0969100130080564,0.008796093022208,,,,,,,,,staircase,501.99237079988234,132.0,2.0,72.0,0.008796093022208,,,,1,1.8260876999702305,2.0283419999759644,,,,0,,,,26839,60.0,
,,,0,62,-1,0,0.0969100130080564,0.010995116277760002,,,,,,,,,staircase,508.1678178999573,174.0,2.0,72.0,0.010995116277760002,,,,0,0.78701790003106,1.0378045001998544,,,,0,,,,26839,60.0,
,,,0,63,-1,0,0.0969100130080564,0.010995116277760002,,,,,,,,,staircase,513.4194877000991,168.0,2.0,72.0,0.010995116277760002,,,,0,0.8654507000464946,1.1158267001155764,,,,0,,,,26839,60.0,
,,,0,64,-1,0,0.0969100130080564,0.013743895347200002,,,,,,,,,staircase,518.656086999923,168.0,2.0,72.0,0.013743895347200002,,,,0,0.4552567000500858,0.6880451999604702,,,,0,,,,26839,60.0,
,,,0,65,-1,0,0.0969100130080564,0.013743895347200002,,,,,,,,,staircase,523.4748193998821,138.0,2.0,72.0,0.013743895347200002,,,,1,0.781611500075087,0.9638201000634581,,,,0,,,,26839,60.0,
,,,0,66,-1,0,0.0969100130080564,0.017179869184000003,,,,,,,,,staircase,528.7504467999097,156.0,2.0,72.0,0.017179869184000003,,,,1,1.0532271000556648,1.2361165001057088,,,,0,,,,26839,60.0,
,,,0,67,-1,0,0.0969100130080564,0.017179869184000003,,,,,,,,,staircase,533.9023857000284,180.0,2.0,72.0,0.017179869184000003,,,,1,0.6715631999541074,0.9032699000090361,,,,0,,,,26839,60.0,
,,,0,68,-1,0,0.0969100130080564,0.021474836480000002,,,,,,,,,staircase,539.1201573999133,144.0,2.0,72.0,0.021474836480000002,,,,0,0.5744545001070946,0.7736734000500292,,,,0,,,,26839,60.0,
,,,0,69,-1,0,0.0969100130080564,0.021474836480000002,,,,,,,,,staircase,543.606573499972,168.0,2.0,72.0,0.021474836480000002,,,,1,0.7009503999724984,0.9009569999761879,,,,1,,,,26839,60.0,
,,,0,-1,-1,0,,,materials/instructions\11_session_start.png,548.7755507000256,561.2034477998968,0,12.30907869990915,12.425902299815789,0.021374299889430404,12.433714699931443,,,,,,,,,,,,,,,,,,,,26839,60.0,
,,,0,-1,-1,0,,,,,,,,,,,,,,,,,,,,,,,,,,,0.008430545721398832,,,26839,60.0,
77,-77,45,0,0,0,10,,,,,,,,,,,session,561.2206925000064,156.0,2.0,72.0,0.1,4,0.8699233001098037,1.0191371000837535,1,1.2885956999380141,1.472643399843946,7,3.5652205999940634,3.6982271000742912,,,54.0,69.0,26839,60.0,
-77,77,45,0,1,1,6,,,,,,,,,,,session,573.539322800003,180.0,2.0,72.0,0.008430545721398832,2,3.403922999976203,3.571661900030449,1,1.3387388000264764,1.5231147001031786,0,0.6970207998529077,0.897174600046128,,,57.0,63.0,26839,60.0,
77,77,90,0,2,2,3,,,,,,,,,,,session,585.9916407000273,168.0,2.0,72.0,0.008430545721398832,5,1.9589386000297964,2.1253001999575645,0,1.215778699843213,1.469663499854505,0,1.1324187000282109,1.3336642999202013,,,66.0,48.0,26839,60.0,
-77,-77,45,0,3,3,14,,,,,,,,,,,session,597.0889914999716,174.0,2.0,72.0,0.008430545721398832,4,1.3494176000822335,1.5327495001256466,0,1.2232021999079734,1.4231481000315398,0,0.735490299994126,0.9357032999396324,,,60.0,60.0,26839,60.0,
-77,77,0,0,4,4,5,,,,,,,,,,,session,607.3244958999567,150.0,2.0,72.0,0.008430545721398832,5,1.686344499932602,1.8860744999255985,6,1.6669573998078704,1.845319699961692,0,0.5352943998295814,0.7822972999420017,,,48.0,51.0,26839,60.0,
-77,77,90,0,5,5,7,,,,,,,,,,,session,617.435712599894,162.0,2.0,72.0,0.008430545721398832,3,0.49521089997142553,0.7283956999890506,7,1.0061864000745118,1.5064320000819862,0,0.7334976000711322,0.9676604999694973,,,66.0,72.0,26839,60.0,
77,-77,-45,0,6,6,8,,,,,,,,,,,session,627.1219723999966,162.0,2.0,72.0,0.008430545721398832,5,1.336271099979058,1.6188174998387694,0,0.3330691000446677,0.5511540998704731,0,0.3871296998113394,0.6115969999227673,,,69.0,60.0,26839,60.0,
77,77,0,0,7,7,1,,,,,,,,,,,session,636.1946964000817,180.0,2.0,72.0,0.008430545721398832,2,1.3115751000586897,1.4778639001306146,0,1.2592148000840098,1.459213700145483,0,2.735766700003296,2.935770999873057,,,57.0,57.0,26839,60.0,
77,77,-45,0,8,8,0,,,,,,,,,,,session,648.5051263999194,156.0,2.0,72.0,0.008430545721398832,2,1.2052333999890834,1.4737400999292731,6,1.3718879998195916,1.622072899946943,0,0.6088798001874238,0.8510158001445234,,,63.0,54.0,26839,60.0,
77,-77,90,0,9,9,11,,,,,,,,,,,session,658.4581382998731,144.0,2.0,72.0,0.008430545721398832,4,4.638794400030747,4.836410199990496,1,1.5002109000924975,1.700318600051105,0,1.0664508000481874,1.3170046000741422,,,72.0,48.0,26839,60.0,
-77,-77,90,0,10,10,15,,,,,,,,,,,session,672.6232328999322,174.0,2.0,72.0,0.008430545721398832,3,2.8250794000923634,3.0418892998714,0,0.3081940000411123,0.5750315000768751,0,0.6482983999885619,0.9112066000234336,,,57.0,48.0,26839,60.0,
-77,77,-45,0,11,11,4,,,,,,,,,,,session,683.302236800082,168.0,2.0,72.0,0.008430545721398832,5,1.0212550999131054,1.3026882000267506,7,0.8839911001268774,1.1342382000293583,0,0.37094129994511604,0.6046476999763399,,,57.0,54.0,26839,60.0,
77,-77,0,0,12,12,9,,,,,,,,,,,session,692.4544824999757,162.0,2.0,72.0,0.008430545721398832,2,0.7543606001418084,0.9720205999910831,0,0.35685140010900795,0.6050339001230896,0,0.9683610999491066,1.218585099792108,,,72.0,54.0,26839,60.0,
-77,-77,-45,0,13,13,12,,,,,,,,,,,session,701.4954947999213,168.0,2.0,72.0,0.008430545721398832,3,1.9585059999953955,2.175133500015363,7,1.4938711000140756,1.6772400999907404,0,0.7157185999676585,0.9158830000087619,,,63.0,66.0,26839,60.0,
-77,-77,0,0,14,14,13,,,,,,,,,,,session,713.4203657999169,168.0,2.0,72.0,0.008430545721398832,5,2.926607299828902,3.1436123999301344,7,1.5588773000054061,1.827218399848789,0,0.3905599999707192,0.6630857000127435,,,57.0,63.0,26839,60.0,
77,77,45,0,15,15,2,,,,,,,,,,,session,725.3062561999541,138.0,2.0,72.0,0.1,5,0.6451208998914808,0.8451145999133587,7,1.4513234000187367,1.665823700139299,6,1.196423000190407,1.396593000041321,,,57.0,69.0,26839,60.0,
-77,-77,90,1,0,16,15,,,,,,,,,,,session,735.4055612999946,138.0,2.0,72.0,0.008430545721398832,2,1.8961328000295907,2.062732700025663,1,1.0244745998643339,1.1913938000798225,0,0.3510894998908043,0.4850059999153018,,,66.0,63.0,26839,60.0,
-77,-77,-45,1,1,17,12,,,,,,,,,,,session,745.0453733999748,168.0,2.0,72.0,0.008430545721398832,3,1.1156190000474453,1.3313263000454754,1,0.7826566998846829,0.94836559984833,0,0.5835504999849945,0.7670606998726726,,,54.0,48.0,26839,60.0,
77,77,0,1,2,18,1,,,,,,,,,,,session,754.6738455998711,150.0,2.0,72.0,0.008430545721398832,2,1.4661938999779522,1.6830154999624938,0,3.09297990007326,3.275839699897915,0,0.18710290011949837,0.4372274000197649,,,57.0,60.0,26839,60.0,
-77,-77,0,1,3,19,13,,,,,,,,,,,session,765.9605346999597,162.0,2.0,72.0,0.008430545721398832,2,0.7442753000650555,0.9229383999481797,6,2.3038898000959307,2.5036433001514524,0,0.2980113001540303,0.49820170016027987,,,57.0,60.0,26839,60.0,
-77,-77,0,1,3,19,13,,,materials/instructions\12_break.png,776.555672599934,778.0847022000235,0,1.3435386999044567,1.5269160999450833,0.016340099973604083,1.5347500001080334,,,,,,,,,,,,,,,,,,,,26839,60.0,
77,-77,90,1,4,20,11,,,,,,,,,,,session,778.1002509999089,180.0,2.0,72.0,0.008430545721398832,2,1.2628829998429865,1.4621426998637617,0,0.6162938999477774,0.7657387000508606,0,0.4677490999456495,0.6677567998412997,,,54.0,72.0,26839,60.0,
-77,77,-45,1,5,21,4,,,,,,,,,,,session,787.5614843999501,168.0,2.0,72.0,0.008430545721398832,2,0.8311503001023084,1.0305896000936627,1,0.7853490000125021,0.9853788998443633,0,0.5152445000130683,0.748088699998334,,,57.0,48.0,26839,60.0,
77,77,-45,1,6,22,0,,,,,,,,,,,session,796.8854708001018,168.0,2.0,72.0,0.008430545721398832,4,0.9513159000780433,1.135024500079453,0,0.570506300078705,0.8045314999762923,0,0.3488370000850409,0.5822258000262082,,,69.0,69.0,26839,60.0,
-77,77,45,1,7,23,6,,,,,,,,,,,session,805.9577867998742,132.0,2.0,72.0,0.008430545721398832,5,1.0510526997968554,1.2843357999809086,7,1.2720792000181973,1.5402734000235796,0,0.32980800000950694,0.56312600011006,,,54.0,60.0,26839,60.0,
-77,77,0,1,8,24,5,,,,,,,,,,,session,814.9070423999801,138.0,2.0,72.0,0.008430545721398832,3,0.8681872000452131,1.0857782000675797,6,1.6686127001885325,1.8687782001215965,0,0.5337907001376152,0.7515003001317382,,,72.0,69.0,26839,60.0,
77,-77,-45,1,9,25,8,,,,,,,,,,,session,824.7235997999087,168.0,2.0,72.0,0.1,4,0.7881851999554783,0.9549651998095214,1,1.2335817001294345,1.3837833001744002,6,0.8175089999567717,1.1341174999251962,,,72.0,60.0,26839,60.0,
77,-77,45,1,10,26,10,,,,,,,,,,,session,834.6308863000013,144.0,2.0,72.0,0.008430545721398832,5,1.9446586999110878,2.1778965000994503,6,4.903196400031447,5.1210513999685645,0,1.9031704999506474,2.1028648000210524,,,63.0,57.0,26839,60.0,
77,77,90,1,11,27,3,,,,,,,,,,,session,850.426658899989,156.0,2.0,72.0,0.008430545721398832,2,1.0846430999226868,1.3014128999784589,1,0.6758574999403208,0.7976998998783529,0,0.494088500039652,0.6666437000967562,,,60.0,48.0,26839,60.0,
77,-77,0,1,12,28,9,,,,,,,,,,,session,859.0759858998936,174.0,2.0,72.0,0.008430545721398832,4,0.7586184998508543,0.9753654999658465,1,0.6864253000821918,0.8710104001220316,0,0.5861591999419034,0.8530257998500019,,,54.0,66.0,26839,60.0,
-77,77,90,1,13,29,7,,,,,,,,,,,session,868.1902246000245,162.0,2.0,72.0,0.1,2,0.7399296001531184,0.923490600194782,6,1.2588927999604493,1.4754400998353958,1,1.751735399942845,1.9262788998894393,,,54.0,72.0,26839,60.0,
77,77,45,1,14,30,2,,,,,,,,,,,session,878.7731135999784,174.0,2.0,72.0,0.1,5,0.877153699984774,1.0762829999439418,7,1.338620799826458,1.5569636998698115,6,2.1156530999578536,2.3489816999062896,,,63.0,69.0,26839,60.0,
-77,-77,45,1,15,31,14,,,,,,,,,,,session,890.9244476999156,138.0,2.0,72.0,0.008430545721398832,3,1.1477693999186158,1.3812623999547213,7,1.9368458001408726,2.1867997001390904,0,0.3645494000520557,0.5313278001267463,,,60.0,72.0,26839,60.0,
-77,-77,-45,2,0,32,12,,,,,,,,,,,session,900.957435999997,180.0,2.0,72.0,0.1,3,0.7961020001675934,0.9793426999822259,1,0.6492238000500947,0.8155044000595808,6,0.5692189000546932,0.8202920001931489,,,69.0,72.0,26839,60.0,
77,-77,0,2,1,33,9,,,,,,,,,,,session,910.9736448999029,138.0,2.0,72.0,0.008430545721398832,2,2.2914719998370856,2.4606201997958124,1,0.9851448000408709,1.1686738000717014,0,0.39643750013783574,0.6127295000478625,,,72.0,57.0,26839,60.0,
-77,77,90,2,2,34,7,,,,,,,,,,,session,921.0963107999414,156.0,2.0,72.0,0.008430545721398832,5,0.8779438000638038,1.0778868000488728,1,0.7837574000004679,0.9669487001374364,0,1.2545055001974106,1.4706642001401633,,,51.0,72.0,26839,60.0,
77,77,90,2,3,35,3,,,,,,,,,,,session,931.2092198000755,138.0,2.0,72.0,0.008430545721398832,4,0.8285497000906616,0.9951674998737872,1,0.973782200133428,1.1573090001475066,0,0.35596319986507297,0.5225187998730689,,,72.0,57.0,26839,60.0,
77,77,-45,2,4,36,0,,,,,,,,,,,session,939.7781124000903,150.0,2.0,72.0,0.008430545721398832,2,0.520128000061959,0.7201561001129448,1,0.6031086000148207,0.7537402999587357,0,0.6503611002117395,0.8714153000619262,,,48.0,57.0,26839,60.0,
-77,77,0,2,5,37,5,,,,,,,,,,,session,947.809124100022,174.0,2.0,72.0,0.1,2,0.9206375000067055,1.1019624001346529,0,0.7035534998867661,0.9035685998387635,6,0.5504417999181896,0.7508835999760777,,,54.0,63.0,26839,60.0,
77,77,0,2,6,38,1,,,,,,,,,,,session,956.8750849000644,132.0,2.0,72.0,0.008430545721398832,5,0.9186573999468237,1.135505700018257,7,1.1390732999425381,1.3721831999719143,0,0.2957813001703471,0.44565719994716346,,,54.0,54.0,26839,60.0,
-77,-77,90,2,7,39,15,,,,,,,,,,,session,965.2790779999923,168.0,2.0,72.0,0.1,3,0.49152979999780655,0.6440328999888152,6,1.2177981999702752,1.4346238998696208,6,0.5449413999449462,0.7792787000071257,,,63.0,63.0,26839,60.0,
-77,-77,90,2,7,39,15,,,materials/instructions\12_break.png,975.0881513000932,976.6371406000108,0,1.3134900000877678,1.5469381001312286,0.018990900134667754,1.5549364001490176,,,,,,,,,,,,,,,,,,,,26839,60.0,
77,-77,90,2,8,40,11,,,,,,,,,,,session,976.6531982999295,138.0,2.0,72.0,0.008430545721398832,5,0.8353903999086469,1.0354921000543982,7,1.6739682001061738,1.9069672001060098,0,0.3368486000690609,0.5215263001155108,,,48.0,60.0,26839,60.0,
-77,-77,45,2,9,41,14,,,,,,,,,,,session,985.6651848999318,174.0,2.0,72.0,0.008430545721398832,4,0.859609599923715,1.0549192999023944,0,1.1013974999077618,1.3034226999152452,0,0.5998770999722183,0.7665739001240581,,,54.0,69.0,26839,60.0,
-77,-77,0,2,10,42,13,,,,,,,,,,,session,995.522637899965,144.0,2.0,72.0,0.008430545721398832,2,0.9493904998525977,1.1662412998266518,1,0.6559144998900592,0.8228158000856638,0,0.7226178001146764,0.9214824000373483,,,63.0,69.0,26839,60.0,
-77,77,-45,2,11,43,4,,,,,,,,,,,session,1004.4771720001008,180.0,2.0,72.0,0.008430545721398832,5,0.9342449000105262,1.1344249998219311,7,2.750317000085488,2.9674857000354677,0,0.901195399928838,1.1794988999608904,,,51.0,48.0,26839,60.0,
77,-77,45,2,12,44,10,,,,,,,,,,,session,1015.8561664000154,132.0,2.0,72.0,0.008430545721398832,4,0.7754401999991387,0.9739206999074668,0,0.648162700003013,0.8818234000355005,0,0.5835442000534385,0.7836815000046045,,,63.0,57.0,26839,60.0,
77,-77,-45,2,13,45,8,,,,,,,,,,,session,1024.1580477999523,150.0,2.0,72.0,0.008430545721398832,3,0.6109683997929096,0.8274016999639571,1,0.8707663000095636,1.0875859998632222,0,0.45493249990977347,0.621695099864155,,,72.0,54.0,26839,60.0,
-77,77,45,2,14,46,6,,,,,,,,,,,session,1032.7481929000933,126.0,2.0,72.0,0.1,2,0.8123543001711369,0.9927129000425339,7,1.2007474000565708,1.4006973998621106,1,0.4968663000036031,0.6811615999322385,,,57.0,72.0,26839,60.0,
77,77,45,2,15,47,2,,,,,,,,,,,session,1042.1085326999892,132.0,2.0,72.0,0.008430545721398832,2,1.3855163999833167,1.6023271000012755,7,0.9196564999874681,1.1380847999826074,0,0.35157439997419715,0.5202194999437779,,,72.0,54.0,26839,60.0,
77,-77,45,3,0,48,10,,,,,,,,,,,session,1051.1140834998805,162.0,2.0,72.0,0.008430545721398832,4,0.7423346000723541,0.9527749000117183,6,0.7924641999416053,1.0596650999505073,0,0.4623972999397665,0.6792214999441057,,,48.0,69.0,26839,60.0,
77,77,-45,3,1,49,0,,,,,,,,,,,session,1059.9397364999168,156.0,2.0,72.0,0.1,5,0.39615110005252063,0.5963304000906646,1,0.6855125001166016,0.852390400134027,6,0.5795601999852806,0.8306126000825316,,,63.0,63.0,26839,60.0,
77,-77,90,3,2,50,11,,,,,,,,,,,session,1068.3757555999327,144.0,2.0,72.0,0.1,4,0.5345793999731541,0.7348241999279708,6,1.2743934001773596,1.5078006000258029,6,0.3352229001466185,0.5339997000992298,,,60.0,72.0,26839,60.0,
77,-77,0,3,3,51,9,,,,,,,,,,,session,1077.2321329000406,132.0,2.0,72.0,0.008430545721398832,3,5.345677700126544,5.563592200167477,1,0.8573141000233591,1.0404044000897557,0,0.39860449987463653,0.6002227999269962,,,60.0,60.0,26839,60.0,
77,77,45,3,4,52,2,,,,,,,,,,,session,1090.8099575999659,150.0,2.0,72.0,0.008430545721398832,4,0.6998362001031637,0.9016043001320213,0,1.1006844001822174,1.300741699989885,0,0.4917227001860738,0.6583551000803709,,,69.0,60.0,26839,60.0,
-77,77,90,3,5,53,7,,,,,,,,,,,session,1099.7594449000899,168.0,2.0,72.0,0.008430545721398832,3,0.6448458998929709,0.861575499875471,1,0.8667828999459743,1.033702699933201,0,0.35781800001859665,0.575026199920103,,,66.0,54.0,26839,60.0,
-77,-77,-45,3,6,54,12,,,,,,,,,,,session,1109.1240356999915,150.0,2.0,72.0,0.008430545721398832,4,1.3167808998841792,1.5336192999966443,0,0.9433512999676168,1.1747282999567688,0,0.4548288998194039,0.6713648999575526,,,51.0,54.0,26839,60.0,
77,-77,-45,3,7,55,8,,,,,,,,,,,session,1118.1963665999938,132.0,2.0,72.0,0.008430545721398832,5,0.8526402001734823,1.052707000169903,6,1.2866183000151068,1.4871571999974549,0,0.4878575000911951,0.6526947999373078,,,51.0,57.0,26839,60.0,
-77,77,45,3,8,56,6,,,,,,,,,,,session,1126.9425107999705,126.0,2.0,72.0,0.008430545721398832,4,0.951118899974972,1.1510245001409203,1,1.6045033999253064,1.823556600138545,0,0.2539416002109647,0.437332300003618,,,48.0,72.0,26839,60.0,
77,77,90,3,9,57,3,,,,,,,,,,,session,1135.9262639998924,126.0,2.0,72.0,0.008430545721398832,2,0.7677613000851125,0.9845807999372482,1,0.5862880998756737,0.8032420999370515,0,0.35620989999733865,0.5722246000077575,,,72.0,60.0,26839,60.0,
-77,-77,90,3,10,58,15,,,,,,,,,,,session,1144.0330185000785,180.0,2.0,72.0,0.008430545721398832,5,0.7151069999672472,0.9485071999952197,0,0.8367695000488311,1.0868736999109387,0,0.9009673001710325,1.1514682001434267,,,66.0,60.0,26839,60.0,
-77,77,0,3,11,59,5,,,,,,,,,,,session,1154.3586053000763,150.0,2.0,72.0,0.008430545721398832,2,0.7396707001607865,0.9398399000056088,0,0.8051222001668066,1.0386757000815123,0,0.6553925001062453,0.9075702000409365,,,60.0,72.0,26839,60.0,
-77,77,0,3,11,59,5,,,materials/instructions\12_break.png,1163.4098457000218,1173.856253999984,0,10.177394200116396,10.444396200124174,0.022744300076738,10.452128999866545,,,,,,,,,,,,,,,,,,,,26839,60.0,
-77,-77,45,3,12,60,14,,,,,,,,,,,session,1173.8724732000846,156.0,2.0,72.0,0.008430545721398832,2,1.6983320000581443,1.9151726001873612,0,1.5431693000718951,1.8107698999810964,0,0.5383580999914557,0.7562798999715596,,,63.0,72.0,26839,60.0,
-77,77,-45,3,13,61,4,,,,,,,,,,,session,1184.6481782000046,156.0,2.0,72.0,0.008430545721398832,4,1.0996014000847936,1.2998283000197262,1,0.918614299967885,1.1682294998317957,0,0.48446700000204146,0.7510837998706847,,,72.0,66.0,26839,60.0,
77,77,0,3,14,62,1,,,,,,,,,,,session,1194.2234865000937,138.0,2.0,72.0,0.1,5,0.6041974001564085,0.8201942001469433,0,0.6220839000307024,0.8055849000811577,6,0.49069050000980496,0.7074297000654042,,,69.0,57.0,26839,60.0,
-77,-77,0,3,15,63,13,,,,,,,,,,,session,1202.3950642999262,126.0,2.0,72.0,0.008430545721398832,2,1.4215653000865132,1.6383336000144482,7,0.8703367998823524,1.052931800018996,0,0.36628799978643656,0.548790599917993,,,54.0,48.0,26839,60.0,
77,-77,45,4,0,64,10,,,,,,,,,,,session,1210.877227500081,150.0,2.0,72.0,0.008430545721398832,3,1.5973016999196261,1.7811276998836547,6,1.153635900001973,1.3682212999556214,0,0.4195946000982076,0.6177028000820428,,,54.0,51.0,26839,60.0,
-77,77,90,4,1,65,7,,,,,,,,,,,session,1220.8076704998966,180.0,2.0,72.0,0.008430545721398832,2,1.070611499948427,1.2891643999610096,0,0.8361442000605166,1.05296800006181,0,0.5676774000748992,0.7836327999830246,,,63.0,57.0,26839,60.0,
77,77,90,4,2,66,3,,,,,,,,,,,session,1230.3822450998705,126.0,2.0,72.0,0.008430545721398832,4,1.2056086999364197,1.375796499894932,1,0.6359835001640022,0.8362128001172096,0,0.41627299995161593,0.6163874000776559,,,57.0,48.0,26839,60.0,
77,-77,90,4,3,67,11,,,,,,,,,,,session,1238.9581538999919,126.0,2.0,72.0,0.1,4,0.36452209996059537,0.5645205997861922,6,1.0385886000003666,1.2720558000728488,1,0.3840419000480324,0.5175715999212116,,,60.0,60.0,26839,60.0,
77,-77,0,4,4,68,9,,,,,,,,,,,session,1246.8609553999268,180.0,2.0,72.0,0.1,4,0.3518781999591738,0.5688607001211494,0,0.5206020001787692,0.7708027001935989,6,0.462840500054881,0.6737003000453115,,,51.0,51.0,26839,60.0,
-77,-77,-45,4,5,69,12,,,,,,,,,,,session,1255.020934900036,180.0,2.0,72.0,0.008430545721398832,3,1.1012347999494523,1.3515878999605775,1,2.9218097999691963,3.1220226001460105,0,0.5840853999834508,0.7681841999292374,,,60.0,57.0,26839,60.0,
-77,-77,90,4,6,70,15,,,,,,,,,,,session,1267.1596852000803,144.0,2.0,72.0,0.008430545721398832,4,0.739160800119862,0.8891388000920415,1,1.0258569999132305,1.226730699883774,0,0.4041482999455184,0.6049083000980318,,,48.0,66.0,26839,60.0,
77,-77,-45,4,7,71,8,,,,,,,,,,,session,1275.6175867998973,156.0,2.0,72.0,0.008430545721398832,5,0.7988325001206249,1.0330440001562238,7,0.8178156001958996,1.051404400030151,0,0.44423260004259646,0.6913596000522375,,,72.0,57.0,26839,60.0,
-77,77,-45,4,8,72,4,,,,,,,,,,,session,1285.2074156999588,156.0,2.0,72.0,0.008430545721398832,2,2.420854700030759,2.6210064999759197,6,1.3753430000506341,1.592187600210309,0,0.6318737999536097,0.865672699874267,,,51.0,69.0,26839,60.0,
77,77,-45,4,9,73,0,,,,,,,,,,,session,1296.3337731000502,162.0,2.0,72.0,0.008430545721398832,4,0.7117135000880808,0.9285596001427621,0,0.8198869999032468,1.136942399898544,0,0.15152140008285642,0.38706229999661446,,,54.0,63.0,26839,60.0,
-77,-77,0,4,10,74,13,,,,,,,,,,,session,1305.4602306999732,132.0,2.0,72.0,0.008430545721398832,4,0.928925700020045,1.1121948999352753,6,0.7747337999753654,1.0257718998473138,0,0.45274249999783933,0.7210452000144869,,,63.0,51.0,26839,60.0,
77,77,45,4,11,75,2,,,,,,,,,,,session,1313.8470053998753,156.0,2.0,72.0,0.008430545721398832,5,0.7861103999894112,1.0372470000293106,7,2.9630640000104904,3.1631000000052154,0,0.29612640012055635,0.5781809999607503,,,66.0,69.0,26839,60.0,
-77,-77,45,4,12,76,14,,,,,,,,,,,session,1324.9288258999586,168.0,2.0,72.0,0.1,3,0.44905810011550784,0.6657128999941051,7,1.072552700061351,1.305443000048399,6,1.7868737999815494,2.053721300093457,,,51.0,54.0,26839,60.0,
-77,77,0,4,13,77,5,,,,,,,,,,,session,1334.9620338999666,138.0,2.0,72.0,0.1,2,0.6579362999182194,0.8238199998158962,0,0.535563200013712,0.735661800019443,6,0.43213910004124045,0.6814931000117213,,,72.0,57.0,26839,60.0,
-77,77,45,4,14,78,6,,,,,,,,,,,session,1343.1015806999058,156.0,2.0,72.0,0.008430545721398832,4,0.9960616999305785,1.2120441999286413,1,3.7643633999396116,3.9333120000083,0,0.3878446000162512,0.5527655000332743,,,66.0,60.0,26839,60.0,
77,77,0,4,15,79,1,,,,,,,,,,,session,1355.5104960999452,156.0,2.0,72.0,0.008430545721398832,5,1.6787203000858426,2.0093203000724316,0,0.9373757001012564,1.1542017001193017,0,1.8765939001459628,2.0307575999759138,,,63.0,66.0,26839,60.0,
77,77,0,4,15,79,1,,,materials/instructions\12_break.png,1366.9287425999064,1368.6902602000628,0,1.6260101001244038,1.7592329001054168,0.015555100049823523,1.7671896000392735,,,,,,,,,,,,,,,,,,,,26839,60.0,
77,77,45,5,0,80,2,,,,,,,,,,,session,1368.7062965000514,156.0,2.0,72.0,0.008430545721398832,2,1.9114926001057029,2.1099275001324713,0,0.25050219986587763,0.4503754999022931,0,0.41980619984678924,0.6362224998883903,,,57.0,57.0,26839,60.0,
77,77,-45,5,1,81,0,,,,,,,,,,,session,1377.862795599969,150.0,2.0,72.0,0.008430545721398832,4,0.5661215998698026,0.7996521999593824,1,0.7084258999675512,0.9401861999649554,0,0.26784830004908144,0.5180083999875933,,,57.0,66.0,26839,60.0,
77,77,90,5,2,82,3,,,,,,,,,,,session,1386.1178031000309,144.0,2.0,72.0,0.008430545721398832,3,0.8268172000534832,1.0104193000588566,1,1.0393562999088317,1.2748755998909473,0,0.4838990999851376,0.750545899849385,,,51.0,54.0,26839,60.0,
-77,-77,0,5,3,83,13,,,,,,,,,,,session,1395.3457094000187,174.0,2.0,72.0,0.008430545721398832,3,1.2828162000514567,1.4662836999632418,0,0.3727833000011742,0.6229403000324965,0,0.5894542001187801,0.8395645001437515,,,57.0,54.0,26839,60.0,
77,77,0,5,4,84,1,,,,,,,,,,,session,1404.4671837999485,180.0,2.0,72.0,0.008430545721398832,4,0.5009914000984281,0.7368455999530852,1,0.5904180000070482,0.7907308000139892,0,0.34281720011495054,0.6098389001563191,,,51.0,69.0,26839,60.0,
-77,77,90,5,5,85,7,,,,,,,,,,,session,1413.0467026999686,180.0,2.0,72.0,0.1,2,0.6188537001144141,0.7690882000606507,6,1.5194524000398815,1.7384615999180824,6,0.6409084999468178,0.8736638000700623,,,63.0,66.0,26839,60.0,
77,-77,0,5,6,86,9,,,,,,,,,,,session,1423.04676320008,156.0,2.0,72.0,0.008430545721398832,2,0.7295682998374104,0.8965369998477399,6,0.5734842999372631,0.7736749998293817,0,0.6783484001643956,0.9048881002236158,,,69.0,57.0,26839,60.0,
77,-77,45,5,7,87,10,,,,,,,,,,,session,1431.7712117000483,156.0,2.0,72.0,0.008430545721398832,3,3.1497714000288397,3.382930199848488,1,0.7884875000454485,0.9709756998345256,0,1.3208554000593722,1.5032925999257714,,,57.0,60.0,26839,60.0,
-77,-77,45,5,8,88,14,,,,,,,,,,,session,1444.1802358001005,162.0,2.0,72.0,0.008430545721398832,4,0.6161199000198394,0.8334967000409961,1,0.42274169996380806,0.6221810998395085,0,0.969933700049296,1.1034383000805974,,,60.0,48.0,26839,60.0,
-77,-77,90,5,9,89,15,,,,,,,,,,,session,1452.685329,132.0,2.0,72.0,0.008430545721398832,2,0.579100500093773,0.746316600125283,1,0.6693023000843823,0.8536859001033008,0,0.5995132999960333,0.8303302000276744,,,51.0,54.0,26839,60.0,
-77,77,45,5,10,90,6,,,,,,,,,,,session,1461.1433602999896,174.0,2.0,72.0,0.1,2,0.3817284998949617,0.5485598999075592,7,1.1576346999499947,1.39107759995386,6,0.6211154998745769,0.8536715998779982,,,72.0,48.0,26839,60.0,
-77,-77,-45,5,11,91,12,,,,,,,,,,,session,1470.26599669992,162.0,2.0,72.0,0.008430545721398832,4,0.9340184999164194,1.151466199895367,1,0.6940734998788685,0.9105290998704731,0,0.46943819988518953,0.7164874998852611,,,57.0,72.0,26839,60.0,
77,-77,90,5,12,92,11,,,,,,,,,,,session,1479.3765855999663,162.0,2.0,72.0,0.008430545721398832,5,0.9928920001257211,1.2256462001241744,0,0.4719111998565495,0.6553942000027746,0,0.5392165000084788,0.7046427999157459,,,57.0,69.0,26839,60.0,
-77,77,-45,5,13,93,4,,,,,,,,,,,session,1488.2121486999094,156.0,2.0,72.0,0.008430545721398832,2,0.8717277001123875,1.089108700165525,0,0.5538667000364512,0.7860954001080245,0,0.6191157998982817,0.8859748998656869,,,69.0,54.0,26839,60.0,
-77,77,0,5,14,94,5,,,,,,,,,,,session,1497.068476999877,180.0,2.0,72.0,0.008430545721398832,5,0.9817919000051916,1.19796929997392,0,0.7059853998944163,0.8731291000731289,0,0.31585859996266663,0.5310752999503165,,,63.0,66.0,26839,60.0,
77,-77,-45,5,15,95,8,,,,,,,,,,,session,1506.8288368999492,150.0,2.0,72.0,0.008430545721398832,4,0.8865298999007791,1.1371325999498367,6,2.3065061001107097,2.5400348000694066,0,0.5013280999846756,0.785905399825424,,,51.0,69.0,26839,60.0,
77,-77,90,6,0,96,11,,,,,,,,,,,session,1517.2353318999521,162.0,2.0,72.0,0.008430545721398832,5,0.7792324000038207,0.9960625001695007,7,1.1372901999857277,1.3394641000777483,0,0.48274059989489615,0.7839498999528587,,,51.0,63.0,26839,60.0,
-77,77,-45,6,1,97,4,,,,,,,,,,,session,1526.878286199877,156.0,2.0,72.0,0.008430545721398832,2,0.48192190006375313,0.6822172999382019,7,2.776215299963951,3.0096861000638455,0,0.45508229988627136,0.6568694999441504,,,51.0,66.0,26839,60.0,
77,-77,45,6,2,98,10,,,,,,,,,,,session,1537.2183171000797,156.0,2.0,72.0,0.008430545721398832,3,4.393035500077531,4.593397699994966,0,0.3384300998877734,0.504081099992618,0,0.7557175999972969,0.989424099912867,,,51.0,66.0,26839,60.0,
77,77,45,6,3,99,2,,,,,,,,,,,session,1549.314633199945,174.0,2.0,72.0,0.008430545721398832,3,0.9365328999701887,1.136980300070718,1,0.6893872998189181,0.8727228997740895,0,0.5555618000216782,0.7390004000626504,,,51.0,48.0,26839,60.0,
77,77,45,6,3,99,2,,,materials/instructions\12_break.png,1558.0917692000512,1561.468074799981,0,3.20602019992657,3.3742835999000818,0.025128399953246117,3.3807572999503464,,,,,,,,,,,,,,,,,,,,26839,60.0,
-77,77,0,6,4,100,5,,,,,,,,,,,session,1561.4826891999692,180.0,2.0,72.0,0.008430545721398832,2,0.8703604999464005,1.0701138000003994,1,0.5679761001374573,0.8013333999551833,0,0.5425843000411987,0.7752231999766082,,,66.0,60.0,26839,60.0,
-77,77,90,6,5,101,7,,,,,,,,,,,session,1571.2812868999317,156.0,2.0,72.0,0.1,2,0.8035176999401301,0.9867072000633925,6,0.7757162998896092,0.9591571998316795,1,0.40624989988282323,0.5899940000381321,,,51.0,57.0,26839,60.0,
-77,-77,45,6,6,102,14,,,,,,,,,,,session,1579.6664708999451,180.0,2.0,72.0,0.008430545721398832,5,0.8225844001863152,0.9911226001568139,0,0.815653899917379,1.0825588998850435,0,0.3944254999514669,0.6153440000489354,,,54.0,51.0,26839,60.0,
-77,-77,0,6,7,103,13,,,,,,,,,,,session,1588.5812834999524,138.0,2.0,72.0,0.008430545721398832,4,0.9226236999966204,1.1541037999559194,6,1.8845203998498619,2.0652868999168277,0,0.45428849989548326,0.671081299893558,,,48.0,63.0,26839,60.0,
-77,-77,-45,6,8,104,12,,,,,,,,,,,session,1598.0635802999604,180.0,2.0,72.0,0.008430545721398832,3,0.7416061998810619,0.9083124999888241,1,0.9183094999752939,1.1183683001436293,0,0.41704039997421205,0.6333691000472754,,,51.0,51.0,26839,60.0,
77,-77,-45,6,9,105,8,,,,,,,,,,,session,1606.8523023000453,180.0,2.0,72.0,0.1,4,0.6674156999215484,0.8173705998342484,1,0.6712489000055939,0.8379504000768065,6,0.5827747001312673,0.7651128000579774,,,63.0,72.0,26839,60.0,
77,77,0,6,10,106,1,,,,,,,,,,,session,1616.5282085000072,126.0,2.0,72.0,0.008430545721398832,3,1.0343325000721961,1.2661270000971854,7,1.3379913999233395,1.5217271998990327,0,0.4522253000177443,0.6524081998504698,,,54.0,57.0,26839,60.0,
-77,77,45,6,11,107,6,,,,,,,,,,,session,1625.3679364998825,132.0,2.0,72.0,0.008430545721398832,5,0.9870142999570817,1.2196665999945253,7,0.8308111000806093,1.0186725999228656,0,0.5634606999810785,0.7331481999717653,,,72.0,51.0,26839,60.0,
77,77,90,6,12,108,3,,,,,,,,,,,session,1634.0480831000023,150.0,2.0,72.0,0.008430545721398832,3,0.5308958999812603,0.7307233999017626,0,0.5060203999746591,0.7561556999571621,0,0.6194977001287043,0.8030600000638515,,,57.0,66.0,26839,60.0,
77,77,-45,6,13,109,0,,,,,,,,,,,session,1642.3476581000723,144.0,2.0,72.0,0.008430545721398832,2,0.9359909000340849,1.1198146999813616,1,0.724313999991864,0.9246580000035465,0,0.9348257000092417,1.1017434000968933,,,54.0,51.0,26839,60.0,
77,-77,0,6,14,110,9,,,,,,,,,,,session,1651.0866096999962,156.0,2.0,72.0,0.008430545721398832,2,0.7766511999070644,0.9602464998606592,6,1.0011988999322057,1.1511987000703812,0,1.5871855998411775,1.7882650999817997,,,51.0,60.0,26839,60.0,
-77,-77,90,6,15,111,15,,,,,,,,,,,session,1661.4811205998994,156.0,2.0,72.0,0.008430545721398832,4,0.8856146999169141,1.0849101000931114,6,0.7899126999545842,1.007212599972263,0,0.4208052000030875,0.6737548999954015,,,63.0,72.0,26839,60.0,
-77,-77,0,7,0,112,13,,,,,,,,,,,session,1670.5208546000067,132.0,2.0,72.0,0.008430545721398832,3,1.3266780998092145,1.529878499917686,0,0.20270800008438528,0.4797569001093507,0,0.2534929998219013,0.5034569997806102,,,66.0,66.0,26839,60.0,
-77,-77,90,7,1,113,15,,,,,,,,,,,session,1678.895346699981,138.0,2.0,72.0,0.008430545721398832,2,0.7693111998960376,0.936071400064975,7,0.6557436999864876,0.8892580000683665,0,0.7231039998587221,0.8732447999063879,,,72.0,51.0,26839,60.0,
-77,77,90,7,2,114,7,,,,,,,,,,,session,1687.3818232999183,168.0,2.0,72.0,0.1,2,0.6723799000028521,0.8225976000539958,6,1.3695845000911504,1.5564039000310004,6,0.3717252998612821,0.5387178000528365,,,51.0,54.0,26839,60.0,
77,77,-45,7,3,115,0,,,,,,,,,,,session,1696.2881753998809,144.0,2.0,72.0,0.008430545721398832,2,1.5308109000325203,1.7985785000491887,7,1.238718800013885,1.436429699882865,0,0.8193073999136686,1.0372217998374254,,,48.0,57.0,26839,60.0,
77,77,45,7,4,116,2,,,,,,,,,,,session,1706.7490276999306,168.0,2.0,72.0,0.008430545721398832,4,0.8226387000177056,1.0228941000532359,0,0.4877418999094516,0.7204664000310004,0,0.5386731000617146,0.7389523999299854,,,66.0,48.0,26839,60.0,
77,-77,-45,7,5,117,8,,,,,,,,,,,session,1715.3705853000283,150.0,2.0,72.0,0.008430545721398832,2,0.5612596999853849,0.8069295999594033,1,0.6167266999837011,0.8318394999951124,0,0.40084400004707277,0.6007521999999881,,,72.0,54.0,26839,60.0,
77,77,90,7,6,118,3,,,,,,,,,,,session,1724.01145250001,150.0,2.0,72.0,0.008430545721398832,5,0.8181448001414537,1.069332899991423,1,0.5688570998609066,0.7687897998839617,0,0.4361031998414546,0.6203665998764336,,,72.0,51.0,26839,60.0,
-77,77,45,7,7,119,6,,,,,,,,,,,session,1732.466156499926,150.0,2.0,72.0,0.008430545721398832,3,1.2897830000147223,1.489822099916637,1,0.5725171999074519,0.789959899848327,0,0.44779509981162846,0.6765804998576641,,,57.0,54.0,26839,60.0,
-77,77,45,7,7,119,6,,,materials/instructions\12_break.png,1741.2412379998714,1742.3267721000593,0,0.8834302998147905,1.0837486998643726,0.015301499981433153,1.0912434000056237,,,,,,,,,,,,,,,,,,,,26839,60.0,
77,77,0,7,8,120,1,,,,,,,,,,,session,1742.3430590000935,150.0,2.0,72.0,0.008430545721398832,4,0.6171265000011772,0.8670552000403404,6,0.44626759993843734,0.6475146999582648,0,0.6698365001939237,1.2705461999867111,,,48.0,69.0,26839,60.0,
77,-77,90,7,9,121,11,,,,,,,,,,,session,1751.1995862999465,126.0,2.0,72.0,0.1,4,0.4064433998428285,0.5886725999880582,6,1.0393640999682248,1.2229006998240948,7,0.30087519995868206,0.5010877000167966,,,63.0,51.0,26839,60.0,
-77,-77,-45,7,10,122,12,,,,,,,,,,,session,1758.953944799956,156.0,2.0,72.0,0.008430545721398832,5,0.9672367998864502,1.1460096999071538,1,0.5039286001119763,0.6549724000506103,0,0.4350515999831259,0.5849638998042792,,,60.0,63.0,26839,60.0,
-77,77,-45,7,11,123,4,,,,,,,,,,,session,1767.5329185000155,144.0,2.0,72.0,0.1,2,0.36713130003772676,0.5496576000005007,1,0.8352757999673486,1.002235900145024,6,0.38464529998600483,0.586034300038591,,,60.0,63.0,26839,60.0,
77,-77,0,7,12,124,9,,,,,,,,,,,session,1775.5823578999843,138.0,2.0,72.0,0.008430545721398832,3,0.8173430999740958,1.031995200086385,6,1.140942000085488,1.3729820000007749,0,0.3331717997789383,0.5010623999405652,,,57.0,69.0,26839,60.0,
77,-77,45,7,13,125,10,,,,,,,,,,,session,1784.339115000097,144.0,2.0,72.0,0.008430545721398832,5,0.8864235000219196,1.0671282999683172,7,1.6733027000445873,1.856952599948272,0,1.7531515001319349,1.9042382000479847,,,51.0,51.0,26839,60.0,
-77,77,0,7,14,126,5,,,,,,,,,,,session,1795.4499293998815,168.0,2.0,72.0,0.1,2,0.4196495998185128,0.5864927999209613,0,0.8875834997743368,1.08757199998945,6,0.37167029990814626,0.50517229991965,,,48.0,54.0,26839,60.0,
-77,-77,45,7,15,127,14,,,,,,,,,,,session,1803.56889149989,126.0,2.0,72.0,0.008430545721398832,5,1.365890699904412,1.6103741000406444,7,2.0519773000851274,2.2495081999804825,0,0.3858077998738736,0.5857460999395698,,,63.0,54.0,26839,60.0,
-77,-77,45,8,0,128,14,,,,,,,,,,,session,1813.5312455000822,180.0,2.0,72.0,0.008430545721398832,4,0.6337872999720275,0.8339496001135558,0,0.7036335000302643,0.9371616998687387,0,0.652134699979797,0.8531443001702428,,,57.0,66.0,26839,60.0,
-77,-77,0,8,1,129,13,,,,,,,,,,,session,1822.6515226999763,126.0,2.0,72.0,0.008430545721398832,2,0.6764680999331176,0.9282865999266505,0,0.2859277999959886,0.486061800038442,0,0.32536099990829825,0.5258287000469863,,,66.0,57.0,26839,60.0,
-77,-77,-45,8,2,130,12,,,,,,,,,,,session,1830.1949952000286,174.0,2.0,72.0,0.008430545721398832,5,1.0166136999614537,1.2841468998230994,6,0.6184145000297576,0.8192365998402238,0,0.5730425999499857,0.7249617001507431,,,66.0,48.0,26839,60.0,
77,77,45,8,3,131,2,,,,,,,,,,,session,1839.585348200053,180.0,2.0,72.0,0.008430545721398832,2,1.1051519000902772,1.3048817000817508,1,0.6217065001837909,0.8218076000921428,0,0.47088350006379187,0.670521300053224,,,57.0,48.0,26839,60.0,
-77,77,-45,8,4,132,4,,,,,,,,,,,session,1848.604947899934,150.0,2.0,72.0,0.008430545721398832,2,0.7580448999069631,1.0248106999788433,0,0.3370016999542713,0.5392791000194848,0,0.2856612999457866,0.4993946999311447,,,48.0,60.0,26839,60.0,
77,77,0,8,5,133,1,,,,,,,,,,,session,1856.8626655999105,132.0,2.0,72.0,0.1,5,0.24942629993893206,0.4807131998240948,0,0.5042449999600649,0.7222389001399279,1,1.0496622000355273,1.2664311998523772,,,69.0,66.0,26839,60.0,
77,-77,90,8,6,134,11,,,,,,,,,,,session,1865.2326148001011,156.0,2.0,72.0,0.008430545721398832,5,0.6841351999901235,0.9178689999971539,1,0.9495174000039697,1.1499023998621851,0,0.548517300048843,0.7505797001067549,,,66.0,66.0,26839,60.0,
-77,77,90,8,7,135,7,,,,,,,,,,,session,1874.302171499934,144.0,2.0,72.0,0.008430545721398832,3,1.1515257998835295,1.3516390000004321,7,7.992770800134167,8.192778000142425,0,3.0592885999940336,3.225598899880424,,,63.0,54.0,26839,60.0,
-77,77,0,8,8,136,5,,,,,,,,,,,session,1893.2221581998747,126.0,2.0,72.0,0.008430545721398832,4,1.0758491999004036,1.2760858999099582,6,1.0849204000551254,1.2492367001250386,0,0.6189185997936875,0.8694822997786105,,,51.0,66.0,26839,60.0,
77,-77,0,8,9,137,9,,,,,,,,,,,session,1902.5511356000789,162.0,2.0,72.0,0.008430545721398832,3,1.6695184998679906,1.8361579000484198,0,0.9723226001951844,1.1390907000750303,0,0.7697129999287426,0.9698775999713689,,,57.0,60.0,26839,60.0,
77,-77,-45,8,10,138,8,,,,,,,,,,,session,1912.6025253999978,150.0,2.0,72.0,0.008430545721398832,5,0.9373809001408517,1.0798325999639928,1,0.6347325998358428,0.8800879998598248,0,0.4473991000559181,0.6677586999721825,,,60.0,63.0,26839,60.0,
77,77,-45,8,11,139,0,,,,,,,,,,,session,1921.2511221999303,156.0,2.0,72.0,0.1,5,0.36462750006467104,0.5470753000117838,1,0.6183565999381244,0.8025551999453455,6,1.3701363001018763,1.604127800092101,,,48.0,72.0,26839,60.0,
77,77,-45,8,11,139,0,,,materials/instructions\12_break.png,1930.2933882998768,1936.7519749000203,0,6.241525099845603,6.455908099887893,0.023823099909350276,6.462568299844861,,,,,,,,,,,,,,,,,,,,26839,60.0,
77,-77,45,8,12,140,10,,,,,,,,,,,session,1936.7652058000676,132.0,2.0,72.0,0.008430545721398832,2,0.5632280001882464,0.7799910001922399,0,0.4676838000304997,0.7344252001494169,0,0.4370545002166182,0.6703118002042174,,,51.0,60.0,26839,60.0,
-77,77,45,8,13,141,6,,,,,,,,,,,session,1944.766942099901,132.0,2.0,72.0,0.008430545721398832,4,0.85308439983055,0.9863246998284012,6,0.9716723999008536,1.205345399910584,0,0.4063754000235349,0.6422804000321776,,,54.0,54.0,26839,60.0,
77,77,90,8,14,142,3,,,,,,,,,,,session,1953.0368757999968,162.0,2.0,72.0,0.008430545721398832,4,1.1528459000401199,1.3360628001391888,1,0.5851456997916102,0.8338067999575287,0,0.36659320001490414,0.5933407000266016,,,63.0,54.0,26839,60.0,
-77,-77,90,8,15,143,15,,,,,,,,,,,session,1961.9768900999334,168.0,2.0,72.0,0.008430545721398832,5,0.8373091001994908,1.0362998000346124,6,1.155013999901712,1.3712519998662174,0,3.454135299893096,3.6215611998923123,,,57.0,54.0,26839,60.0,
-77,77,90,9,0,144,7,,,,,,,,,,,session,1974.6326369000599,138.0,2.0,72.0,0.008430545721398832,2,0.6847669000271708,0.8874457001220435,1,0.7273840999696404,0.9771851999685168,0,0.40494999988004565,0.6532697000075132,,,54.0,69.0,26839,60.0,
77,77,0,9,1,145,1,,,,,,,,,,,session,1982.939136199886,144.0,2.0,72.0,0.008430545721398832,4,0.7168756001628935,0.9021594000514597,6,0.9721739001106471,1.1565346999559551,0,0.5718012000434101,0.7688992000184953,,,63.0,72.0,26839,60.0,
77,77,45,9,2,146,2,,,,,,,,,,,session,1992.4303170000203,126.0,2.0,72.0,0.008430545721398832,5,0.8337522998917848,1.0339361999649554,7,1.4182245000265539,1.6518019998911768,0,0.8709468001034111,1.0388830001465976,,,60.0,54.0,26839,60.0,
-77,-77,90,9,3,147,15,,,,,,,,,,,session,2001.5878671000246,180.0,2.0,72.0,0.008430545721398832,5,0.7955644000321627,1.040526800090447,1,0.5306659999769181,0.8180229000281543,0,0.34663800010457635,0.4662166000343859,,,51.0,63.0,26839,60.0,
77,77,90,9,4,148,3,,,,,,,,,,,session,2010.4183336000424,126.0,2.0,72.0,0.1,5,0.6552281999029219,0.8220347000751644,6,1.071129099931568,1.2378327997867018,6,0.5851881999988109,0.7853443000931293,,,72.0,54.0,26839,60.0,
-77,-77,45,9,5,149,14,,,,,,,,,,,session,2018.9165856000036,132.0,2.0,72.0,0.008430545721398832,2,0.9555179998278618,1.1561141998972744,1,0.8519314001314342,1.019509700126946,0,0.43474439997226,0.5848244000226259,,,60.0,66.0,26839,60.0,
77,-77,0,9,6,150,9,,,,,,,,,,,session,2027.4237573000137,174.0,2.0,72.0,0.1,4,0.667775799985975,0.8678073999471962,0,0.6220608002040535,0.8390091001056135,6,0.3805798999965191,0.5966638000681996,,,60.0,57.0,26839,60.0,
-77,-77,0,9,7,151,13,,,,,,,,,,,session,2036.6150118000805,168.0,2.0,72.0,0.008430545721398832,3,1.8747447999194264,2.106435899855569,6,0.46003169985488057,0.6435557999648154,0,0.38328609988093376,0.584097099956125,,,48.0,54.0,26839,60.0,
-77,77,0,9,8,152,5,,,,,,,,,,,session,2045.8883457998745,180.0,2.0,72.0,0.008430545721398832,5,0.9527219000738114,1.1961521001067013,7,0.9053509999066591,1.1230359999462962,0,1.4677603000309318,1.6681689999531955,,,51.0,69.0,26839,60.0,
77,-77,-45,9,9,153,8,,,,,,,,,,,session,2056.4670402000193,168.0,2.0,72.0,0.008430545721398832,4,1.0180641000624746,1.2014343000482768,1,0.8899938999675214,1.0900415999349207,0,0.603255300084129,0.7858435001689941,,,66.0,54.0,26839,60.0,
77,-77,45,9,10,154,10,,,,,,,,,,,session,2065.7860962999985,156.0,2.0,72.0,0.008430545721398832,2,0.9026627999264747,1.1853212998248637,7,0.36837389995343983,0.6018083998933434,0,0.31735919998027384,0.5628672000020742,,,48.0,69.0,26839,60.0,
-77,77,-45,9,11,155,4,,,,,,,,,,,session,2074.1304595998954,132.0,2.0,72.0,0.008430545721398832,5,0.870621700072661,1.1035311999730766,1,0.8164935999084264,1.0000273999758065,0,0.5149728001561016,0.7830730001442134,,,72.0,54.0,26839,60.0,
77,-77,90,9,12,156,11,,,,,,,,,,,session,2082.9001168000977,156.0,2.0,72.0,0.1,4,0.9428240999113768,1.1259610000997782,6,0.8884089000057429,1.0550887999124825,6,0.3186472998932004,0.4685784000903368,,,54.0,60.0,26839,60.0,
77,77,-45,9,13,157,0,,,,,,,,,,,session,2091.5065645999275,150.0,2.0,72.0,0.008430545721398832,2,1.1302279999945313,1.3766755000688136,6,2.037829900160432,2.2376484000124037,0,0.3759842999279499,0.6593343999702483,,,48.0,63.0,26839,60.0,
-77,-77,-45,9,14,158,12,,,,,,,,,,,session,2102.064906100044,174.0,2.0,72.0,0.008430545721398832,5,0.766263599973172,0.9830778001341969,1,0.8178777999710292,1.0515664000995457,0,0.5229829999152571,0.7555050000082701,,,51.0,48.0,26839,60.0,
-77,77,45,9,15,159,6,,,,,,,,,,,session,2110.8550140999723,162.0,2.0,72.0,0.008430545721398832,4,0.6711190999485552,0.8712106000166386,7,0.5663636999670416,0.8786661999765784,1,5.96937569999136,6.235294600017369,,,66.0,54.0,26839,60.0,
-77,77,45,9,15,159,6,,,materials/instructions\12_break.png,2125.0642514000647,2154.5688867000863,0,29.28616110002622,29.502871700096875,0.01951729995198548,29.510950499912724,,,,,,,,,,,,,,,,,,,,26839,60.0,
77,77,-45,10,0,160,0,,,,,,,,,,,session,2154.5853232000954,150.0,2.0,72.0,0.1,5,0.4379215999506414,0.5881149000488222,1,0.5383720998652279,0.7376492000184953,6,0.3430200000293553,0.5148685001768172,,,48.0,66.0,26839,60.0,
77,-77,0,10,1,161,9,,,,,,,,,,,session,2162.3033346000593,180.0,2.0,72.0,0.1,4,0.4369322001002729,0.6202555999625474,0,0.5212789000943303,0.8032806001137942,6,0.4999313000589609,0.7661226000636816,,,69.0,63.0,26839,60.0,
-77,77,90,10,2,162,7,,,,,,,,,,,session,2171.282803900074,150.0,2.0,72.0,0.008430545721398832,3,1.519184899982065,1.7359275000635535,6,0.8032125001773238,1.1029052000958472,0,0.3876986000686884,0.6388365000020713,,,66.0,51.0,26839,60.0,
-77,-77,0,10,3,163,13,,,,,,,,,,,session,2180.6580999,144.0,2.0,72.0,0.008430545721398832,5,6.7332443001214415,7.583936300128698,1,0.7223883999977261,0.9395858999341726,0,0.7060899999924004,0.937574400100857,,,57.0,51.0,26839,60.0,
77,-77,90,10,4,164,11,,,,,,,,,,,session,2196.302554700058,180.0,2.0,72.0,0.008430545721398832,2,0.9361157999373972,1.1861306999344379,6,0.3886166999582201,0.6052721999585629,0,1.8793079999741167,2.145843999926001,,,51.0,51.0,26839,60.0,
77,77,90,10,5,165,3,,,,,,,,,,,session,2206.385487599997,144.0,2.0,72.0,0.008430545721398832,2,0.8033332999330014,1.0366821000352502,7,0.1544371999334544,0.6738674999214709,0,0.8533809999935329,1.1031132999341935,,,72.0,48.0,26839,60.0,
77,77,45,10,6,166,2,,,,,,,,,,,session,2215.251370300073,144.0,2.0,72.0,0.008430545721398832,3,1.0532192999962717,1.3353946001734585,1,0.7398027000017464,0.9234533999115229,0,0.3695300999097526,0.6193134998902678,,,60.0,54.0,26839,60.0,
-77,-77,90,10,7,167,15,,,,,,,,,,,session,2223.8743715998717,138.0,2.0,72.0,0.008430545721398832,2,0.7236832999624312,0.9618357999715954,1,0.553905799984932,0.7201233000960201,0,0.41306350007653236,0.6601037001237273,,,66.0,60.0,26839,60.0,
-77,77,0,10,8,168,5,,,,,,,,,,,session,2232.201754800044,138.0,2.0,72.0,0.008430545721398832,5,0.821092699887231,1.0869605999905616,0,0.40248259995132685,0.6538058000151068,0,0.35217490000650287,0.5522610999178141,,,57.0,60.0,26839,60.0,
-77,-77,-45,10,9,169,12,,,,,,,,,,,session,2240.2021313000005,156.0,2.0,72.0,0.008430545721398832,2,0.6364736999385059,0.8866111000534147,1,0.4402060001157224,0.6243728999979794,0,2.122165200067684,2.360894799930975,,,69.0,54.0,26839,60.0,
77,-77,45,10,10,170,10,,,,,,,,,,,session,2250.1699516000226,126.0,2.0,72.0,0.008430545721398832,3,0.8409479002002627,1.1411955000367016,6,0.7526066999416798,1.01836679992266,0,0.48377689998596907,0.7180359999183565,,,54.0,57.0,26839,60.0,
-77,77,45,10,11,171,6,,,,,,,,,,,session,2258.750722799916,132.0,2.0,72.0,0.008430545721398832,2,0.8168126998934895,1.0336305999662727,7,0.9353674999438226,1.188077799975872,0,0.4853121000342071,0.6691145999357104,,,54.0,66.0,26839,60.0,
77,77,0,10,12,172,1,,,,,,,,,,,session,2267.2903376000468,150.0,2.0,72.0,0.008430545721398832,2,0.6457928000018001,0.9523934000171721,0,0.7682684999890625,1.0140039001125842,0,4.638331500114873,4.853008600184694,,,51.0,51.0,26839,60.0,
77,-77,-45,10,13,173,8,,,,,,,,,,,session,2279.98449860001,138.0,2.0,72.0,0.008430545721398832,2,0.7199897000100464,0.920103200012818,1,0.6184195999521762,0.8351751000154763,0,0.6772370999678969,0.894796899985522,,,69.0,48.0,26839,60.0,
-77,-77,45,10,14,174,14,,,,,,,,,,,session,2288.3409835000057,132.0,2.0,72.0,0.008430545721398832,2,4.695881800027564,4.927176200086251,0,0.27346729999408126,0.49034309992566705,0,0.6190345999784768,0.8360480000264943,,,57.0,66.0,26839,60.0,
-77,77,-45,10,15,175,4,,,,,,,,,,,session,2300.3213446999434,168.0,2.0,72.0,0.008430545721398832,5,0.8904581000097096,1.1565012999344617,7,0.5774273001588881,0.8267215001396835,0,2.789466699818149,2.953265099786222,,,54.0,72.0,26839,60.0,
-77,77,45,11,0,176,6,,,,,,,,,,,session,2311.6080702000763,132.0,2.0,72.0,0.008430545721398832,2,0.775411400012672,1.0201616000849754,7,0.7695730999112129,1.0531458999030292,0,0.5127919998485595,0.7160649998113513,,,63.0,48.0,26839,60.0,
-77,-77,-45,11,1,177,12,,,,,,,,,,,session,2319.9533756000455,126.0,2.0,72.0,0.008430545721398832,4,1.0312458002008498,1.2486580000258982,0,1.0713291999418288,1.3050565000157803,0,1.069714599987492,1.2520967000164092,,,51.0,66.0,26839,60.0,
77,77,0,11,2,178,1,,,,,,,,,,,session,2329.2533968000207,162.0,2.0,72.0,0.008430545721398832,3,1.6073634000495076,1.8750132001005113,6,2.056529400171712,2.256199800176546,0,0.6709966000635177,0.9546020000707358,,,66.0,51.0,26839,60.0,
77,77,90,11,3,179,3,,,,,,,,,,,session,2340.4714023999404,132.0,2.0,72.0,0.008430545721398832,2,0.7860574999358505,1.052531799999997,7,0.40484629990532994,0.6550898000132293,0,0.7521665000822395,1.1191628000233322,,,57.0,51.0,26839,60.0,
77,77,90,11,3,179,3,,,materials/instructions\12_break.png,2348.782261000015,2350.38395570009,0,1.3993494000751525,1.5995235999580473,0.021171600092202425,1.6071752000134438,,,,,,,,,,,,,,,,,,,,26839,60.0,
-77,-77,0,11,4,180,13,,,,,,,,,,,session,2350.3991912000347,162.0,2.0,72.0,0.008430545721398832,3,0.8005600001197308,1.0507332000415772,7,1.0899798998143524,1.272900299867615,0,3.413246399955824,3.559015699895099,,,57.0,54.0,26839,60.0,
77,-77,0,11,5,181,9,,,,,,,,,,,session,2362.2814044000115,150.0,2.0,72.0,0.1,4,0.7702450000215322,0.9866818999871612,0,0.522946999873966,0.754020299995318,6,0.45522739994339645,0.6560186999849975,,,72.0,48.0,26839,60.0,
-77,-77,90,11,6,182,15,,,,,,,,,,,session,2370.6252299998887,156.0,2.0,72.0,0.1,3,0.4714328998234123,0.6381508999038488,6,1.1881240999791771,1.4058368999976665,6,0.2847144999541342,0.4515001999679953,,,72.0,69.0,26839,60.0,
77,-77,45,11,7,183,10,,,,,,,,,,,session,2379.526416100096,156.0,2.0,72.0,0.1,4,0.6260544001124799,0.8133366999682039,7,1.2485888998489827,1.4985431998502463,6,0.37609859998337924,0.5760515001602471,,,48.0,57.0,26839,60.0,
77,77,45,11,8,184,2,,,,,,,,,,,session,2388.835825599963,156.0,2.0,72.0,0.008430545721398832,5,6.122624499956146,6.34018800011836,0,0.6548574999906123,0.9380618999712169,0,0.7690970001276582,1.0686298001091927,,,66.0,51.0,26839,60.0,
-77,77,0,11,9,185,5,,,,,,,,,,,session,2403.1771953999996,174.0,2.0,72.0,0.1,2,0.36317109991796315,0.5300012000370771,0,0.48922760016284883,0.7728240001015365,6,0.31503980001434684,0.5162786999717355,,,57.0,63.0,26839,60.0,
-77,-77,45,11,10,186,14,,,,,,,,,,,session,2411.920438400004,150.0,2.0,72.0,0.008430545721398832,2,4.149680600035936,4.416540999896824,6,1.391764200059697,1.5744116001296788,0,0.35429910011589527,0.6042111001443118,,,66.0,51.0,26839,60.0,
-77,77,90,11,11,187,7,,,,,,,,,,,session,2424.4099745000713,162.0,2.0,72.0,0.1,2,0.3641154000069946,0.6624215000774711,6,1.0185024999082088,1.2504265001043677,1,0.6186959999613464,0.8169545000419021,,,51.0,69.0,26839,60.0,
77,-77,90,11,12,188,11,,,,,,,,,,,session,2433.954755499959,174.0,2.0,72.0,0.008430545721398832,5,7.671330000041053,7.888753900071606,7,0.4183237000834197,0.6584388001356274,0,0.4629587000235915,0.656696500023827,,,72.0,60.0,26839,60.0,
77,77,-45,11,13,189,0,,,,,,,,,,,session,2449.71693330002,168.0,2.0,72.0,0.008430545721398832,4,1.069262099917978,1.269045899854973,1,1.1561457999050617,1.3893635999411345,0,1.887689899886027,2.1202032999135554,,,63.0,48.0,26839,60.0,
-77,77,-45,11,14,190,4,,,,,,,,,,,session,2460.7220181000885,156.0,2.0,72.0,0.1,2,0.3492213999852538,0.5660224999301136,1,0.6410519999917597,0.8237522998824716,0,0.6510417000390589,1.3352982001379132,,,63.0,48.0,26839,60.0,
77,-77,-45,11,15,191,8,,,,,,,,,,,session,2469.345188899897,168.0,2.0,72.0,0.008430545721398832,5,1.8362036999315023,2.034129000036046,7,1.7859114001039416,2.002572099911049,0,1.3702597999945283,1.5695603999774903,,,69.0,60.0,26839,60.0,
-77,-77,-45,12,0,192,12,,,,,,,,,,,session,2482.0538578999694,168.0,2.0,72.0,0.1,3,0.8219051999039948,1.0220202000346035,1,1.0750846001319587,1.2418039999902248,6,0.7017404998186976,0.9345626998692751,,,72.0,69.0,26839,60.0,
77,77,-45,12,1,193,0,,,,,,,,,,,session,2491.8442613000516,180.0,2.0,72.0,0.008430545721398832,2,1.300893200095743,1.5341650999616832,7,1.1684902000706643,1.4191042000893503,0,0.6834201000165194,0.9336618001107126,,,57.0,66.0,26839,60.0,
77,77,45,12,2,194,2,,,,,,,,,,,session,2502.803033400094,144.0,2.0,72.0,0.008430545721398832,5,1.473257599864155,1.6732607998419553,1,0.7895484999753535,1.0080446999054402,0,0.5726505001075566,0.8219293002039194,,,66.0,66.0,26839,60.0,
-77,-77,45,12,3,195,14,,,,,,,,,,,session,2512.3602871000767,168.0,2.0,72.0,0.008430545721398832,4,0.8059818001929671,1.0695028000045568,0,1.2205017998348922,1.4525360998231918,0,0.8267093000467867,1.041876700008288,,,72.0,63.0,26839,60.0,
-77,77,45,12,4,196,6,,,,,,,,,,,session,2522.9701469999272,174.0,2.0,72.0,0.1,2,0.7322420000564307,0.9003008999861777,7,1.2731442998629063,1.5065981999505311,6,0.3209754000417888,0.5033404000569135,,,48.0,72.0,26839,60.0,
77,77,90,12,5,197,3,,,,,,,,,,,session,2532.2252295000944,174.0,2.0,72.0,0.008430545721398832,5,0.8836167000699788,1.1057531000114977,1,0.6877773001324385,0.8375829001888633,0,0.9176602999214083,1.1176595999859273,,,60.0,72.0,26839,60.0,
-77,77,90,12,6,198,7,,,,,,,,,,,session,2541.851531599881,150.0,2.0,72.0,0.008430545721398832,3,2.6323949999641627,2.8644590000621974,7,0.7714299999643117,1.021568400086835,0,0.6061336998827755,0.8395326999016106,,,63.0,51.0,26839,60.0,
77,-77,-45,12,7,199,8,,,,,,,,,,,session,2552.4428016999736,150.0,2.0,72.0,0.008430545721398832,2,0.7048273000400513,0.9059107000939548,7,0.46595830004662275,0.7271131000015885,0,0.7696906998753548,0.9669594999868423,,,66.0,66.0,26839,60.0,
77,-77,-45,12,7,199,8,,,materials/instructions\12_break.png,2561.2858581000473,2565.167934600031,0,3.663280899869278,3.880068799946457,0.018696699989959598,3.8875404000282288,,,,,,,,,,,,,,,,,,,,26839,60.0,
-77,77,0,12,8,200,5,,,,,,,,,,,session,2565.183671100065,150.0,2.0,72.0,0.008430545721398832,2,6.307189600076526,6.556384900119156,1,0.774181499844417,0.9919765000231564,0,0.33218250004574656,0.5831571000162512,,,57.0,54.0,26839,60.0,
77,-77,45,12,9,201,10,,,,,,,,,,,session,2579.1121564998757,162.0,2.0,72.0,0.008430545721398832,5,0.5633028999436647,0.778332999907434,7,0.41705990000627935,0.7837986000813544,0,0.8084581000730395,1.075152900069952,,,48.0,54.0,26839,60.0,
-77,-77,0,12,10,202,13,,,,,,,,,,,session,2588.190714800032,150.0,2.0,72.0,0.008430545721398832,2,0.4676232999190688,0.6677832999266684,1,0.5725847999565303,0.7727083000354469,0,0.5392014000099152,0.8219675999134779,,,72.0,60.0,26839,60.0,
-77,-77,90,12,11,203,15,,,,,,,,,,,session,2596.610314199934,132.0,2.0,72.0,0.008430545721398832,4,1.7858239999040961,1.9860445999074727,1,0.8281376999802887,0.9996542001608759,0,1.2956860000267625,1.5794148000422865,,,72.0,60.0,26839,60.0,
77,77,0,12,12,204,1,,,,,,,,,,,session,2607.040459099924,156.0,2.0,72.0,0.008430545721398832,5,2.475245099980384,2.72267990000546,1,0.657644199905917,0.8572511000093073,0,0.5043766000308096,0.7543889000080526,,,60.0,51.0,26839,60.0,
77,-77,90,12,13,205,11,,,,,,,,,,,session,2617.2737555999774,174.0,2.0,72.0,0.1,4,0.5693869001697749,0.7695661000907421,6,1.0001773000694811,1.1838034000247717,1,0.6922957000788301,0.7972853002138436,,,60.0,54.0,26839,60.0,
-77,77,-45,12,14,206,4,,,,,,,,,,,session,2626.272855799878,162.0,2.0,72.0,0.008430545721398832,5,0.769996500108391,0.9876431999728084,6,1.7540943000931293,1.9696706000249833,0,0.5190136001911014,0.7691846999805421,,,66.0,63.0,26839,60.0,
77,-77,0,12,15,207,9,,,,,,,,,,,session,2636.441644199891,156.0,2.0,72.0,0.008430545721398832,5,0.7879890000913292,1.039078100118786,7,0.47571050003170967,0.7760189999826252,0,0.4464763000141829,0.6638239999301732,,,48.0,51.0,26839,60.0,
77,77,-45,13,0,208,0,,,,,,,,,,,session,2644.5960967000574,168.0,2.0,72.0,0.008430545721398832,5,6.547312800073996,6.778972199885175,6,0.8416482000611722,1.0419393999036402,0,0.5377687998116016,0.7715088999830186,,,57.0,54.0,26839,60.0,
-77,-77,-45,13,1,209,12,,,,,,,,,,,session,2659.806229900103,180.0,2.0,72.0,0.008430545721398832,5,0.7051490000449121,0.9584753001108766,1,0.637687599984929,0.8541300999931991,0,0.32208269997499883,0.6075057999696583,,,48.0,60.0,26839,60.0,
77,77,45,13,2,210,2,,,,,,,,,,,session,2668.482445599977,174.0,2.0,72.0,0.008430545721398832,5,0.5475689000450075,0.7640205000061542,6,0.6544192999135703,0.8378942999988794,0,0.36725120013579726,0.6674671000801027,,,72.0,72.0,26839,60.0,
77,-77,-45,13,3,211,8,,,,,,,,,,,session,2678.1735594999045,144.0,2.0,72.0,0.008430545721398832,2,0.9867117998655885,1.1867233000230044,0,0.59227510006167,0.775476299924776,0,0.4999800999648869,0.716101200086996,,,57.0,72.0,26839,60.0,
-77,77,45,13,4,212,6,,,,,,,,,,,session,2686.843318300089,180.0,2.0,72.0,0.008430545721398832,3,0.8485789000988007,1.0486097999382764,0,0.7333992999047041,0.933384999865666,0,0.5520025999285281,0.7344857999123633,,,48.0,66.0,26839,60.0,
-77,77,-45,13,5,213,4,,,,,,,,,,,session,2696.0198178999126,180.0,2.0,72.0,0.008430545721398832,2,1.1340645998716354,1.3509340998716652,1,0.5695211000274867,0.7688168999738991,0,0.40543250017799437,0.6375196999870241,,,54.0,48.0,26839,60.0,
-77,-77,45,13,6,214,14,,,,,,,,,,,session,2704.9237045999616,150.0,2.0,72.0,0.1,3,0.38433399982750416,0.6011334999930114,1,0.5183999999426305,0.7020648999605328,6,0.9508841999340802,1.1333310999907553,,,54.0,54.0,26839,60.0,
77,77,90,13,7,215,3,,,,,,,,,,,session,2713.113515000092,144.0,2.0,72.0,0.008430545721398832,2,0.9053364000283182,1.123741599963978,1,0.5474247999954969,0.7298869998194277,0,0.6313660000450909,0.8491513000335544,,,60.0,51.0,26839,60.0,
-77,77,90,13,8,216,7,,,,,,,,,,,session,2722.089501499897,180.0,2.0,72.0,0.008430545721398832,5,0.7500336000230163,0.9343505001161247,6,2.742188199888915,2.892169199883938,0,0.6714556000661105,0.8892010001000017,,,54.0,72.0,26839,60.0,
-77,-77,90,13,9,217,15,,,,,,,,,,,session,2733.3467612999957,174.0,2.0,72.0,0.1,3,0.37793849990703166,0.5780515999067575,6,1.1215564999729395,1.287540900055319,0,0.5330908999312669,0.7662720999214798,,,63.0,54.0,26839,60.0,
77,77,0,13,10,218,1,,,,,,,,,,,session,2742.8380209000316,174.0,2.0,72.0,0.008430545721398832,3,0.9502117000520229,1.1524849000852555,1,0.724627299932763,0.9083406999707222,0,0.6555901998654008,0.8389410998206586,,,51.0,63.0,26839,60.0,
-77,-77,0,13,11,219,13,,,,,,,,,,,session,2751.976407600101,150.0,2.0,72.0,0.008430545721398832,2,1.1537665000651032,1.3120579000096768,1,0.449269600212574,0.5976076000370085,0,0.3519155001267791,0.5021168000530452,,,69.0,69.0,26839,60.0,
-77,-77,0,13,11,219,13,,,materials/instructions\12_break.png,2760.6703530999366,2762.536845800001,0,1.7133671999908984,1.8642794000916183,0.019059000071138144,1.8707880999427289,,,,,,,,,,,,,,,,,,,,26839,60.0,
77,-77,45,13,12,220,10,,,,,,,,,,,session,2762.5516041999217,144.0,2.0,72.0,0.008430545721398832,2,0.8966508000157773,1.1489293000195175,1,0.5574864000082016,0.7410673000849783,0,0.8522886000573635,1.0690913998987526,,,54.0,57.0,26839,60.0,
77,-77,0,13,13,221,9,,,,,,,,,,,session,2771.207866200013,168.0,2.0,72.0,0.008430545721398832,5,1.0201389000285417,1.1868284000083804,1,0.6191367998253554,0.8023224999196827,0,1.2149359001778066,1.3936782001983374,,,63.0,63.0,26839,60.0,
77,-77,90,13,14,222,11,,,,,,,,,,,session,2780.936423599953,144.0,2.0,72.0,0.008430545721398832,3,0.8015572000294924,1.0348419998772442,1,0.6387956000398844,0.8224442999344319,0,0.4860245999880135,0.7030897000804543,,,60.0,54.0,26839,60.0,
-77,77,0,13,15,223,5,,,,,,,,,,,session,2789.425101300003,144.0,2.0,72.0,0.1,2,0.4049841999076307,0.6029036999680102,0,0.6398384999483824,0.7572695999406278,6,0.2885821000672877,0.4882362999487668,,,66.0,69.0,26839,60.0,
-77,-77,45,14,0,224,14,,,,,,,,,,,session,2797.362181399949,156.0,2.0,72.0,0.008430545721398832,5,0.7005069998558611,0.8945210999809206,1,0.38892300007864833,0.6704786999616772,0,0.38366329995915294,0.5833743999246508,,,72.0,66.0,26839,60.0,
-77,77,0,14,1,225,5,,,,,,,,,,,session,2805.889213900082,168.0,2.0,72.0,0.1,2,0.40017940010875463,0.6500540000852197,0,0.5377167998813093,0.7533670000266284,6,0.3674794000107795,0.5676331999711692,,,69.0,72.0,26839,60.0,
77,77,45,14,2,226,2,,,,,,,,,,,session,2814.4568064000923,126.0,2.0,72.0,0.008430545721398832,5,0.7731115000788122,0.9565869001671672,1,0.7253048000857234,0.9254056999925524,0,0.565952500095591,0.7658880001399666,,,54.0,51.0,26839,60.0,
77,-77,-45,14,3,227,8,,,,,,,,,,,session,2822.3979261999484,144.0,2.0,72.0,0.1,4,0.6491367998532951,0.8293548999354243,1,1.0352048999629915,1.2009830998722464,6,0.75077940011397,0.9507135001476854,,,51.0,51.0,26839,60.0,
77,77,90,14,4,228,3,,,,,,,,,,,session,2831.6583666000515,144.0,2.0,72.0,0.008430545721398832,3,1.1021692999638617,1.3187861999031156,0,1.053986799903214,1.2543065999634564,0,0.8903244999237359,1.1579167998861521,,,54.0,66.0,26839,60.0,
-77,77,90,14,5,229,7,,,,,,,,,,,session,2841.2310869998764,180.0,2.0,72.0,0.008430545721398832,4,0.7652791999280453,0.9653296999167651,7,0.48773099994286895,0.7337829999160022,0,0.5201371000148356,0.7218108000233769,,,60.0,60.0,26839,60.0,
-77,-77,90,14,6,230,15,,,,,,,,,,,session,2850.2908079999033,180.0,2.0,72.0,0.008430545721398832,3,0.8326717000454664,1.0332881999202073,1,0.9214290999807417,1.1709946000482887,0,0.48643759987317026,0.6542223999276757,,,48.0,48.0,26839,60.0,
-77,77,-45,14,7,231,4,,,,,,,,,,,session,2859.225686999969,144.0,2.0,72.0,0.008430545721398832,5,0.6349768999498338,0.9198598000220954,6,1.004641099832952,1.219318199902773,0,0.4628397000487894,0.6739460001699626,,,69.0,66.0,26839,60.0,
77,77,0,14,8,232,1,,,,,,,,,,,session,2868.219577499898,162.0,2.0,72.0,0.008430545721398832,2,0.5285829999484122,0.7276661999057978,0,0.7729082000441849,0.9729834999889135,0,0.584201900055632,0.8029492001514882,,,66.0,60.0,26839,60.0,
77,-77,0,14,9,233,9,,,,,,,,,,,session,2877.491834399989,138.0,2.0,72.0,0.008430545721398832,3,0.6785404998809099,0.9269925998523831,1,0.5226733000017703,0.7397371998522431,0,0.3312623999081552,0.5645926999859512,,,54.0,72.0,26839,60.0,
-77,-77,-45,14,10,234,12,,,,,,,,,,,session,2885.561581999995,132.0,2.0,72.0,0.1,3,0.3184098999481648,0.5369426999241114,1,0.558695999905467,0.7300442999694496,6,0.7362170000560582,1.0161860000807792,,,69.0,63.0,26839,60.0,
-77,77,45,14,11,235,6,,,,,,,,,,,session,2893.7058299998753,156.0,2.0,72.0,0.008430545721398832,2,0.7997302000876516,1.0165989000815898,6,0.43356100004166365,0.651076499838382,0,0.38411960005760193,0.6018261001445353,,,57.0,54.0,26839,60.0,
77,-77,45,14,12,236,10,,,,,,,,,,,session,2901.892533000093,156.0,2.0,72.0,0.008430545721398832,4,0.9547578000929207,1.1550567001104355,7,1.470455199945718,1.6868708999827504,0,1.291933799860999,1.4948428999632597,,,51.0,63.0,26839,60.0,
-77,-77,0,14,13,237,13,,,,,,,,,,,session,2912.17706310004,156.0,2.0,72.0,0.008430545721398832,3,2.0143029000610113,2.26474849996157,1,0.6041759999934584,0.8043502001091838,0,0.48381369980052114,0.7669041999615729,,,66.0,66.0,26839,60.0,
77,77,-45,14,14,238,0,,,,,,,,,,,session,2922.8411137000658,168.0,2.0,72.0,0.1,5,0.48409539996646345,0.7011410999111831,1,0.5034004000481218,0.6879617001395673,6,0.45367810013704,0.6871122000738978,,,57.0,63.0,26839,60.0,
77,-77,90,14,15,239,11,,,,,,,,,,,session,2931.163901400054,144.0,2.0,72.0,0.008430545721398832,4,1.0410654000006616,1.1960100999567658,7,0.8867756999097764,1.1038547998759896,0,0.8192277001217008,1.0683530000969768,,,60.0,54.0,26839,60.0,
77,-77,90,14,15,239,11,,,materials/instructions\12_break.png,2940.542543800082,2942.1541081999894,0,1.393762200139463,1.6095561000984162,0.014017699984833598,1.6161321999970824,,,,,,,,,,,,,,,,,,,,26839,60.0,
77,77,-45,15,0,240,0,,,,,,,,,,,session,2942.17039069999,132.0,2.0,72.0,0.008430545721398832,2,0.5649767001159489,0.7984575999435037,0,0.5722688999958336,0.8058841000311077,0,0.7186946000438184,0.9686988000757992,,,54.0,48.0,26839,60.0,
77,-77,45,15,1,241,10,,,,,,,,,,,session,2950.0950225999113,144.0,2.0,72.0,0.1,4,0.5201082997955382,0.7210976998321712,7,1.1607973000500351,1.4007802000269294,6,0.32476530014537275,0.5248106000944972,,,57.0,51.0,26839,60.0,
77,-77,-45,15,2,242,8,,,,,,,,,,,session,2958.388214699924,144.0,2.0,72.0,0.008430545721398832,3,0.6683461999054998,0.8672694999258965,6,0.8024531998671591,1.0357224000617862,0,0.4525287998840213,0.6528252998832613,,,63.0,72.0,26839,60.0,
-77,77,-45,15,3,243,4,,,,,,,,,,,session,2967.0739454999566,180.0,2.0,72.0,0.1,2,0.3716541000176221,0.590313500026241,1,0.9193584001623094,1.1020667999982834,6,0.43646740005351603,0.6696795001626015,,,63.0,48.0,26839,60.0,
77,-77,90,15,4,244,11,,,,,,,,,,,session,2975.7313554000575,168.0,2.0,72.0,0.008430545721398832,5,0.758737999945879,1.0719461999833584,7,1.1372504001483321,1.3370903001632541,0,1.1283315001055598,1.3616432000417262,,,69.0,66.0,26839,60.0,
77,-77,0,15,5,245,9,,,,,,,,,,,session,2986.525435900083,162.0,2.0,72.0,0.008430545721398832,3,1.018039199989289,1.2180382998194546,6,1.022710100049153,1.2061967998743057,0,0.5711312000639737,0.7708733999170363,,,60.0,72.0,26839,60.0,
-77,77,45,15,6,246,6,,,,,,,,,,,session,2996.0632505000103,150.0,2.0,72.0,0.008430545721398832,3,0.5100869999732822,0.7377686998806894,1,0.5002782000228763,0.700601400109008,0,0.4308949999976903,0.6313580998685211,,,72.0,48.0,26839,60.0,
-77,-77,0,15,7,247,13,,,,,,,,,,,session,3004.1067256000824,168.0,2.0,72.0,0.008430545721398832,4,0.7407583999447525,0.9406820998992771,0,1.0344140999950469,1.2846373999491334,0,0.8038647999055684,1.0040152999572456,,,63.0,69.0,26839,60.0,
77,77,45,15,8,248,2,,,,,,,,,,,session,3013.7927007998805,126.0,2.0,72.0,0.1,5,0.36486279987730086,0.5983750999439508,7,2.025534200016409,2.2916842999402434,6,0.5845701999496669,0.7121808000374585,,,51.0,63.0,26839,60.0,
-77,-77,45,15,9,249,14,,,,,,,,,,,session,3022.8531897000503,162.0,2.0,72.0,0.008430545721398832,2,0.7145532998256385,0.9134871999267489,1,0.5836310999002308,0.7836362000089139,0,1.1821352001279593,1.365607300074771,,,57.0,57.0,26839,60.0,
-77,-77,90,15,10,250,15,,,,,,,,,,,session,3032.4912640999537,156.0,2.0,72.0,0.008430545721398832,4,0.7018812999594957,0.8854364999569952,6,5.777685899985954,5.976120200008154,0,0.4564944999292493,0.7267366000451148,,,63.0,69.0,26839,60.0,
-77,-77,-45,15,11,251,12,,,,,,,,,,,session,3046.3432533000596,144.0,2.0,72.0,0.008430545721398832,3,0.6594090000726283,0.8592409000266343,1,0.6677804000210017,0.9175395001657307,0,0.5502899000421166,0.8345990001689643,,,63.0,57.0,26839,60.0,
-77,77,0,15,12,252,5,,,,,,,,,,,session,3054.941618300043,144.0,2.0,72.0,0.008430545721398832,2,0.6204205001704395,0.8570616999641061,6,1.0552941001951694,1.2719617001712322,0,2.838281399803236,3.0560759999789298,,,60.0,72.0,26839,60.0,
77,77,90,15,13,253,3,,,,,,,,,,,session,3066.1671738000587,168.0,2.0,72.0,0.1,5,0.3411159999668598,0.5400662999600172,6,1.469919100170955,1.670741300098598,6,0.5205020001158118,0.7173158000223339,,,63.0,57.0,26839,60.0,
-77,77,90,15,14,254,7,,,,,,,,,,,session,3076.0067867999896,174.0,2.0,72.0,0.1,2,0.38587290002033114,0.5861867000348866,6,1.0415233001112938,1.2239600999746472,6,0.3546595999505371,0.5383399999700487,,,51.0,51.0,26839,60.0,
77,77,0,15,15,255,1,,,,,,,,,,,session,3084.3989307999145,144.0,2.0,72.0,0.008430545721398832,4,0.7498443000949919,0.9332219001371413,6,0.9651085000950843,1.1151590999215841,0,0.9505576000083238,1.2002056001219898,,,54.0,51.0,26839,60.0,
77,-77,45,16,0,256,10,,,,,,,,,,,session,3093.2435612999834,132.0,2.0,72.0,0.1,4,0.41798579995520413,0.632053199922666,7,1.2053358000703156,1.354045500047505,6,0.5822889001574367,0.7666879000607878,,,69.0,66.0,26839,60.0,
-77,-77,45,16,1,257,14,,,,,,,,,,,session,3101.894429099979,156.0,2.0,72.0,0.008430545721398832,3,1.3050536999944597,1.5549316999968141,6,0.7729571000672877,0.940961099928245,0,0.5110660998616368,0.7170198999810964,,,57.0,66.0,26839,60.0,
-77,-77,0,16,2,258,13,,,,,,,,,,,session,3111.212681300007,168.0,2.0,72.0,0.008430545721398832,5,0.6171042998321354,0.7153868000023067,7,1.0206367000937462,1.2234893999993801,0,0.857736699981615,1.0904824999161065,,,57.0,63.0,26839,60.0,
-77,77,-45,16,3,259,4,,,,,,,,,,,session,3120.9780131001025,156.0,2.0,72.0,0.1,2,0.3372148999478668,0.554014400113374,1,0.8397046001628041,1.0898655001074076,6,0.3212143999990076,0.5202205998357385,,,48.0,54.0,26839,60.0,
-77,77,-45,16,3,259,4,,,materials/instructions\12_break.png,3128.907719400013,3144.974699199898,0,15.933246199972928,16.06453790003434,0.024507199879735708,16.072489900048822,,,,,,,,,,,,,,,,,,,,26839,60.0,
77,77,45,16,4,260,2,,,,,,,,,,,session,3144.99006849993,168.0,2.0,72.0,0.008430545721398832,4,0.9382823999039829,1.1703668998088688,6,1.5701198999304324,1.7705256999470294,0,0.32907740003429353,0.6120712000411004,,,72.0,54.0,26839,60.0,
77,77,-45,16,5,261,0,,,,,,,,,,,session,3154.893981799949,126.0,2.0,72.0,0.008430545721398832,2,0.462612499948591,0.72935889987275,1,0.41999279987066984,0.6366739999502897,0,0.536488100187853,0.8007960000541061,,,63.0,51.0,26839,60.0,
-77,77,45,16,6,262,6,,,,,,,,,,,session,3163.1457988000475,174.0,2.0,72.0,0.008430545721398832,5,0.619589600013569,0.836349599994719,0,0.791579200187698,1.0099226001184434,0,0.618611500132829,0.8353232000954449,,,51.0,69.0,26839,60.0,
-77,77,90,16,7,263,7,,,,,,,,,,,session,3172.1835334000643,126.0,2.0,72.0,0.008430545721398832,3,0.5020676001440734,0.7524415000807494,1,0.5622778998222202,0.7954050998669118,0,0.46852120012044907,0.6851628001313657,,,66.0,72.0,26839,60.0,
-77,-77,-45,16,8,264,12,,,,,,,,,,,session,3180.2785823000595,180.0,2.0,72.0,0.008430545721398832,5,0.7371555999852717,0.9374079999979585,1,0.7529380999039859,1.0034014999400824,0,0.3018318999093026,0.5370151998940855,,,60.0,69.0,26839,60.0,
77,77,0,16,9,265,1,,,,,,,,,,,session,3189.3780239000916,132.0,2.0,72.0,0.008430545721398832,3,1.0057206000201404,1.174479499924928,7,3.258527300087735,3.509976400062442,0,0.5154825001955032,0.6944192000664771,,,57.0,72.0,26839,60.0,
77,-77,90,16,10,266,11,,,,,,,,,,,session,3200.5571385000367,180.0,2.0,72.0,0.008430545721398832,2,1.1002205000258982,1.3004235001280904,1,0.7400724999606609,0.9235505000688136,0,0.3837555998470634,0.617319299839437,,,63.0,54.0,26839,60.0,
77,77,90,16,11,267,3,,,,,,,,,,,session,3210.058737499872,126.0,2.0,72.0,0.008430545721398832,5,0.55787150003016,0.7914589000865817,7,0.7036323000211269,0.9366780000273138,0,0.43608510005287826,0.655116000212729,,,48.0,48.0,26839,60.0,
-77,-77,90,16,12,268,15,,,,,,,,,,,session,3217.583514699945,168.0,2.0,72.0,0.008430545721398832,2,0.9639268999453634,1.1972971998620778,1,0.5871837998274714,0.7670121998526156,0,0.5841481999959797,0.8008395000360906,,,57.0,57.0,26839,60.0,
77,-77,0,16,13,269,9,,,,,,,,,,,session,3226.6246257000603,180.0,2.0,72.0,0.008430545721398832,5,0.6333703999407589,0.8331187998410314,6,0.7896307001356035,1.0892126001417637,0,0.5726058001164347,0.8558615001384169,,,48.0,63.0,26839,60.0,
-77,77,0,16,14,270,5,,,,,,,,,,,session,3235.698552499991,180.0,2.0,72.0,0.008430545721398832,4,1.0540902002248913,1.2541892000008374,0,1.4403133001178503,1.6628652000799775,0,0.5683371999766678,0.8481659998651594,,,69.0,72.0,26839,60.0,
77,-77,-45,16,15,271,8,,,,,,,,,,,session,3246.2581209999043,174.0,2.0,72.0,0.008430545721398832,4,0.504081099992618,0.7209612999577075,1,0.602833200013265,0.7701326999813318,0,0.4834125000052154,0.7335282999556512,,,72.0,66.0,26839,60.0,
77,-77,-45,17,0,272,8,,,,,,,,,,,session,3255.147013799986,126.0,2.0,72.0,0.008430545721398832,4,0.736005200073123,0.9694835999980569,1,0.6175230001099408,0.832876400090754,0,0.4549302998930216,0.6710922999773175,,,69.0,48.0,26839,60.0,
77,77,-45,17,1,273,0,,,,,,,,,,,session,3263.1172990999185,174.0,2.0,72.0,0.1,5,0.34588430006988347,0.5253959000110626,1,0.6178168000187725,0.8203410001005977,6,1.3554948000237346,1.589164299890399,,,63.0,72.0,26839,60.0,
-77,-77,45,17,2,274,14,,,,,,,,,,,session,3273.263645299943,156.0,2.0,72.0,0.008430545721398832,4,0.6387827999424189,0.8398368000052869,0,0.8199028999079019,1.0211694999597967,0,0.37380809988826513,0.6225354999769479,,,69.0,63.0,26839,60.0,
77,77,45,17,3,275,2,,,,,,,,,,,session,3282.0156370999757,156.0,2.0,72.0,0.008430545721398832,5,0.6030203998088837,0.7867305998224765,1,0.5452189999632537,0.7456902000121772,0,0.5284619999583811,0.7672575998585671,,,48.0,51.0,26839,60.0,
-77,77,45,17,4,276,6,,,,,,,,,,,session,3290.0462380999234,180.0,2.0,72.0,0.1,2,0.33433980005793273,0.5841072001494467,7,1.0001481000799686,1.2167862001806498,1,0.28330640005879104,0.48344209999777377,,,54.0,63.0,26839,60.0,
77,77,90,17,5,277,3,,,,,,,,,,,session,3298.7439468998928,138.0,2.0,72.0,0.008430545721398832,4,0.986916100140661,1.1871143002063036,7,1.0065306001342833,1.2236236000899225,0,0.3645393999759108,0.5978530999273062,,,63.0,51.0,26839,60.0,
77,-77,45,17,6,278,10,,,,,,,,,,,session,3307.417773599969,156.0,2.0,72.0,0.008430545721398832,3,0.8279554001055658,1.1402821000665426,6,0.36901929997839034,0.5873006000183523,0,0.48515600012615323,0.686235300032422,,,57.0,72.0,26839,60.0,
-77,77,-45,17,7,279,4,,,,,,,,,,,session,3316.627444899874,126.0,2.0,72.0,0.008430545721398832,3,0.5706367001403123,0.7041744999587536,7,0.6530323999468237,0.8887853999622166,0,0.5353457001037896,0.7683784000109881,,,48.0,63.0,26839,60.0,
-77,77,-45,17,7,279,4,,,materials/instructions\12_break.png,3324.4045406000223,3328.414776700083,0,3.7913039999548346,4.008181600132957,0.010280800051987171,4.0161738998722285,,,,,,,,,,,,,,,,,,,,26839,60.0,
-77,77,0,17,8,280,5,,,,,,,,,,,session,3328.4308040000033,150.0,2.0,72.0,0.008430545721398832,2,1.6249243998900056,1.8250672998838127,1,0.2057811999693513,0.42242700001224875,0,0.5343389001209289,0.7498010001145303,,,51.0,72.0,26839,60.0,
-77,-77,90,17,9,281,15,,,,,,,,,,,session,3337.659632799914,132.0,2.0,72.0,0.008430545721398832,2,9.673598799854517,9.940015699947253,6,0.5719492000062019,0.7720495001412928,0,0.7087270999327302,0.9762368998490274,,,48.0,72.0,26839,60.0,
77,-77,90,17,10,282,11,,,,,,,,,,,session,3355.0077672998887,174.0,2.0,72.0,0.008430545721398832,5,0.6844158000312746,0.8344155999366194,0,0.7185275999363512,0.9353575999848545,0,0.4848071997985244,0.7346130998339504,,,69.0,48.0,26839,60.0,
-77,-77,0,17,11,283,13,,,,,,,,,,,session,3364.1277028000914,174.0,2.0,72.0,0.1,3,0.553218699991703,0.7199786000419408,0,0.5248565000947565,0.7426903999876231,6,0.45631629996933043,0.6553414999507368,,,69.0,63.0,26839,60.0,
77,77,0,17,12,284,1,,,,,,,,,,,session,3372.784973300062,180.0,2.0,72.0,0.008430545721398832,4,0.8094514000695199,1.0302891000173986,1,0.8339092000387609,0.9701179000549018,0,2.0723502999171615,2.305039699887857,,,48.0,57.0,26839,60.0,
-77,77,90,17,13,285,7,,,,,,,,,,,session,3383.6799037000164,138.0,2.0,72.0,0.008430545721398832,5,0.7996267999988049,1.0001778998412192,1,0.8425142001360655,1.0257779001258314,0,0.389717300189659,0.6221376999747008,,,54.0,48.0,26839,60.0,
-77,-77,-45,17,14,286,12,,,,,,,,,,,session,3391.7843452000525,138.0,2.0,72.0,0.1,3,0.5022317999973893,0.7022722999099642,1,0.6239729998633265,0.7907962999306619,6,0.20329649979248643,0.40391189977526665,,,57.0,72.0,26839,60.0,
77,-77,0,17,15,287,9,,,,,,,,,,,session,3399.5804012001026,162.0,2.0,72.0,0.1,4,0.36854890012182295,0.5186197001021355,0,0.6337743001058698,0.8672331999987364,1,0.3374372001271695,0.4874398000538349,,,51.0,72.0,26839,60.0,
77,77,-45,18,0,288,0,,,,,,,,,,,session,3407.7609631000087,144.0,2.0,72.0,0.1,5,1.0865263000596315,1.271029599942267,1,0.8904590997844934,1.0906477998942137,1,0.7691051999572664,0.9847987999673933,,,54.0,48.0,26839,60.0,
-77,77,-45,18,1,289,4,,,,,,,,,,,session,3416.651278400095,132.0,2.0,72.0,0.008430545721398832,2,0.8803558999206871,1.1253450999502093,1,1.8006940998602659,1.980799000011757,0,0.2510941999498755,0.4510745001025498,,,57.0,72.0,26839,60.0,
77,-77,45,18,2,290,10,,,,,,,,,,,session,3426.075925000012,162.0,2.0,72.0,0.008430545721398832,3,0.7656485999468714,0.9658435999881476,6,3.1916447000112385,3.3768855000380427,0,0.45741540007293224,0.655290300026536,,,60.0,69.0,26839,60.0,
77,77,90,18,3,291,3,,,,,,,,,,,session,3437.3673280999064,126.0,2.0,72.0,0.008430545721398832,5,0.7193478001281619,0.9057825000490993,1,0.6521868000272661,0.8524692000355572,0,1.651924799894914,1.849269799888134,,,69.0,51.0,26839,60.0,
77,77,0,18,4,292,1,,,,,,,,,,,session,3446.5309619999025,168.0,2.0,72.0,0.008430545721398832,2,0.7245549999643117,0.9913676001597196,1,0.7365770998876542,1.0044662998989224,0,0.46358169987797737,0.6971518998034298,,,54.0,63.0,26839,60.0,
-77,-77,0,18,5,293,13,,,,,,,,,,,session,3455.446631500032,150.0,2.0,72.0,0.008430545721398832,4,0.8245483001228422,1.007674700114876,6,0.7587069999426603,0.9591477999929339,0,0.3872039997950196,0.5706390999257565,,,48.0,60.0,26839,60.0,
-77,77,45,18,6,294,6,,,,,,,,,,,session,3463.720557600027,174.0,2.0,72.0,0.008430545721398832,2,0.8659242000430822,1.1013352000154555,7,0.40250379987992346,0.6247888000216335,0,0.4179730999749154,0.635638500098139,,,72.0,69.0,26839,60.0,
77,-77,-45,18,7,295,8,,,,,,,,,,,session,3473.5123087998945,126.0,2.0,72.0,0.008430545721398832,2,0.836740099824965,1.0034836998675019,6,0.9911995001602918,1.191299800062552,0,0.7046560000162572,0.874548900173977,,,48.0,66.0,26839,60.0,
-77,-77,-45,18,8,296,12,,,,,,,,,,,session,3482.020177599974,132.0,2.0,72.0,0.1,3,0.40416819998063147,0.6032889999914914,1,0.569613799918443,0.7489553999621421,0,0.6104125999845564,0.7807243999559432,,,48.0,57.0,26839,60.0,
77,77,45,18,9,297,2,,,,,,,,,,,session,3489.5811491999775,174.0,2.0,72.0,0.008430545721398832,2,8.12402609991841,8.241602499969304,7,0.8601586997974664,1.0772021999582648,0,1.1548818999435753,1.3396514998748899,,,48.0,66.0,26839,60.0,
-77,77,0,18,10,298,5,,,,,,,,,,,session,3506.5044664999004,138.0,2.0,72.0,0.1,2,0.4791774000041187,0.6961215999908745,0,0.7203724000137299,0.8539840001612902,6,1.2415426999796182,1.4251687999349087,,,72.0,69.0,26839,60.0,
-77,-77,45,18,11,299,14,,,,,,,,,,,session,3516.14892759989,174.0,2.0,72.0,0.008430545721398832,2,0.7019388999324292,0.9189083001110703,6,0.6541275000199676,0.8544618999585509,0,0.671446799999103,0.822633600095287,,,60.0,69.0,26839,60.0,
-77,-77,45,18,11,299,14,,,materials/instructions\12_break.png,3525.2767658999655,3530.218220300041,0,4.805772899882868,4.939337000017986,0.02413849998265505,4.947126799961552,,,,,,,,,,,,,,,,,,,,26839,60.0,
77,-77,90,18,12,300,11,,,,,,,,,,,session,3530.2336776000448,144.0,2.0,72.0,0.1,4,0.46206379984505475,0.6481214999221265,6,1.2521003999281675,1.468946199864149,6,0.4188016001135111,0.5688711002003402,,,72.0,54.0,26839,60.0,
-77,77,90,18,13,301,7,,,,,,,,,,,session,3539.527299199952,174.0,2.0,72.0,0.1,2,0.5188970998860896,0.6868715998716652,6,1.2534660000819713,1.4369431000668555,6,0.28619190002791584,0.4862173998262733,,,48.0,72.0,26839,60.0,
-77,-77,90,18,14,302,15,,,,,,,,,,,session,3548.4874410999473,150.0,2.0,72.0,0.008430545721398832,5,1.994312700117007,2.166104700183496,7,0.7154381000436842,0.9957759000826627,0,0.5035945000126958,0.7382724001072347,,,66.0,54.0,26839,60.0,
77,-77,0,18,15,303,9,,,,,,,,,,,session,3558.4118619000074,162.0,2.0,72.0,0.008430545721398832,3,0.7030595000833273,0.9040747000835836,1,0.7876951999496669,0.9545686999335885,0,1.1712410999462008,1.3716418000403792,,,66.0,66.0,26839,60.0,
-77,77,45,19,0,304,6,,,,,,,,,,,session,3567.9823568998836,168.0,2.0,72.0,0.008430545721398832,4,0.6242153998464346,0.7900855999905616,7,1.0031891998369247,1.2403308998327702,0,0.5975042001809925,0.7767388001084328,,,51.0,57.0,26839,60.0,
-77,77,-45,19,1,305,4,,,,,,,,,,,session,3576.8770119999535,144.0,2.0,72.0,0.008430545721398832,2,0.6852273000404239,0.885061000008136,1,0.5730814000125974,0.7378430999815464,0,0.6364653001073748,0.819180800113827,,,72.0,57.0,26839,60.0,
-77,77,0,19,2,306,5,,,,,,,,,,,session,3585.4135443998966,144.0,2.0,72.0,0.008430545721398832,4,0.6537764999084175,0.8373155000153929,1,0.8895414001308382,1.0895486001390964,0,0.2862015999853611,0.5203571000602096,,,54.0,69.0,26839,60.0,
77,-77,45,19,3,307,10,,,,,,,,,,,session,3593.753811399918,144.0,2.0,72.0,0.008430545721398832,3,0.6777507001534104,0.7826406999956816,7,0.43716770014725626,0.7503872001543641,0,0.5680961001198739,0.8061697999946773,,,48.0,51.0,26839,60.0,
77,77,-45,19,4,308,0,,,,,,,,,,,session,3601.933483700035,126.0,2.0,72.0,0.008430545721398832,2,1.2518324998673052,1.4520860000047833,1,0.452821500133723,0.7386608000379056,0,0.7698223001789302,1.0551251000724733,,,66.0,54.0,26839,60.0,
-77,-77,90,19,5,309,15,,,,,,,,,,,session,3610.749268000014,132.0,2.0,72.0,0.008430545721398832,4,0.6009322998579592,0.8184857999440283,6,0.37064490001648664,0.6720096999779344,0,0.9285760000348091,1.3135476999450475,,,69.0,69.0,26839,60.0,
-77,-77,0,19,6,310,13,,,,,,,,,,,session,3619.499253100017,126.0,2.0,72.0,0.008430545721398832,3,0.81515850010328,1.0299932002089918,0,1.1572689001914114,1.358290300006047,0,0.7044693999923766,0.9054955998435616,,,48.0,63.0,26839,60.0,
77,77,90,19,7,311,3,,,,,,,,,,,session,3628.682606199989,156.0,2.0,72.0,0.008430545721398832,5,1.3531720000319183,1.5860270999837667,7,0.5553355000447482,0.8211125999223441,0,0.5543373001273721,0.7722728999797255,,,57.0,48.0,26839,60.0,
77,-77,90,19,8,312,11,,,,,,,,,,,session,3637.6533321999013,132.0,2.0,72.0,0.1,4,0.3524342000018805,0.5449254000559449,6,0.8505327000748366,1.0465508999768645,1,0.7855906998738647,1.0024799997918308,,,54.0,60.0,26839,60.0,
77,-77,-45,19,9,313,8,,,,,,,,,,,session,3645.8654014000203,174.0,2.0,72.0,0.008430545721398832,2,2.4527405998669565,2.702219699975103,1,1.5720834999810904,1.805649699876085,0,0.9871515999548137,1.2374060000292957,,,69.0,51.0,26839,60.0,
-77,77,90,19,10,314,7,,,,,,,,,,,session,3657.9844436000567,168.0,2.0,72.0,0.008430545721398832,5,3.5770610999315977,3.8227639000397176,1,0.9373349000234157,1.1036554998718202,0,0.964275199919939,1.2979005000088364,,,48.0,69.0,26839,60.0,
77,-77,0,19,11,315,9,,,,,,,,,,,session,3670.4296987000853,168.0,2.0,72.0,0.008430545721398832,4,1.270117999985814,1.503499399870634,1,1.3208818000275642,1.5032335999421775,0,2.684267300181091,2.9675538002047688,,,48.0,72.0,26839,60.0,
77,77,0,19,12,316,1,,,,,,,,,,,session,3682.6530142999254,174.0,2.0,72.0,0.008430545721398832,4,2.399726999923587,2.6305817998945713,7,3.124240300152451,3.322330900002271,0,0.5605436998885125,0.8097476998809725,,,51.0,60.0,26839,60.0,
77,77,45,19,13,317,2,,,,,,,,,,,session,3696.1990845000837,162.0,2.0,72.0,0.008430545721398832,2,0.7038527000695467,0.9210330001078546,0,0.8759377000387758,1.1089816000312567,0,0.8028501998633146,1.036410499829799,,,48.0,63.0,26839,60.0,
-77,-77,45,19,14,318,14,,,,,,,,,,,session,3705.2533114999533,132.0,2.0,72.0,0.1,3,0.34151019994169474,0.5413548999931663,7,1.1218642999883741,1.3538721001241356,6,0.3361458000726998,0.5359274002257735,,,66.0,66.0,26839,60.0,
-77,-77,-45,19,15,319,12,,,,,,,,,,,session,3713.996482099872,174.0,2.0,72.0,0.008430545721398832,5,1.0216280999593437,1.1718483997974545,1,0.7369180999230593,0.9200609000399709,0,0.8218139999080449,1.021912100026384,,,66.0,72.0,26839,60.0,
-77,-77,-45,19,15,319,12,,,materials/instructions\12_break.png,3723.777347000083,3809.431605000049,0,85.53487410000525,85.65188880008645,0.025322600034996867,85.659467499936,,,,,,,,,,,,,,,,,,,,26839,60.0,
-77,77,0,20,0,320,5,,,,,,,,,,,session,3809.4466834000777,180.0,2.0,72.0,0.008430545721398832,5,1.3464990998618305,1.528931099921465,1,0.8714922999497503,1.0542081999592483,0,0.6263487001415342,0.8427648001816124,,,72.0,69.0,26839,60.0,
77,77,90,20,1,321,3,,,,,,,,,,,session,3819.6949763998855,144.0,2.0,72.0,0.008430545721398832,2,0.5041970999445766,0.7365826000459492,7,0.5844202998559922,0.7840864998288453,0,0.5853908001445234,0.785486200125888,,,66.0,66.0,26839,60.0,
-77,-77,90,20,2,322,15,,,,,,,,,,,session,3828.232039900031,180.0,2.0,72.0,0.008430545721398832,4,0.5544364999514073,0.7373601000290364,1,0.5218513999134302,0.7722358000464737,0,0.6324619001243263,0.8157206000760198,,,66.0,54.0,26839,60.0,
-77,77,45,20,3,323,6,,,,,,,,,,,session,3836.989323399961,150.0,2.0,72.0,0.1,2,0.8626323000062257,1.012670500203967,7,0.9538675001822412,1.2007945000659674,6,0.7519673998467624,0.9699448000174016,,,51.0,48.0,26839,60.0,
77,-77,45,20,4,324,10,,,,,,,,,,,session,3846.0643543999176,126.0,2.0,72.0,0.008430545721398832,3,0.7720681999344379,0.972071300027892,7,0.8774158998858184,1.1106956000439823,0,1.502693200018257,1.788552800193429,,,60.0,60.0,26839,60.0,
77,77,0,20,5,325,1,,,,,,,,,,,session,3855.470353000099,132.0,2.0,72.0,0.008430545721398832,4,0.7357520998921245,0.93623759993352,1,0.8750368999317288,1.0592994999606162,0,0.8995630000717938,1.0995587999932468,,,54.0,63.0,26839,60.0,
-77,77,90,20,6,326,7,,,,,,,,,,,session,3864.1835370000917,132.0,2.0,72.0,0.008430545721398832,5,1.3682134998962283,1.618228399893269,6,1.372927499935031,1.606861500069499,0,0.5677811000496149,0.8012826999183744,,,60.0,66.0,26839,60.0,
-77,-77,-45,20,7,327,12,,,,,,,,,,,session,3873.9819346999284,174.0,2.0,72.0,0.008430545721398832,3,0.8725404001306742,1.1062946000602096,6,1.385055699851364,1.6185947000049055,0,0.4813616001047194,0.6981518000829965,,,48.0,60.0,26839,60.0,
77,77,45,20,8,328,2,,,,,,,,,,,session,3883.5398939999286,132.0,2.0,72.0,0.008430545721398832,4,0.8516301000490785,1.0667338001076132,1,0.8360820999369025,1.0859612000640482,0,0.6543050000909716,0.8685904999729246,,,54.0,57.0,26839,60.0,
77,-77,90,20,9,329,11,,,,,,,,,,,session,3892.6490954000037,138.0,2.0,72.0,0.008430545721398832,3,0.5657473001629114,0.7658753001596779,1,0.638002899941057,0.8381180998403579,0,0.41826229984872043,0.6338502999860793,,,54.0,54.0,26839,60.0,
-77,-77,45,20,10,330,14,,,,,,,,,,,session,3900.4380562000442,126.0,2.0,72.0,0.008430545721398832,2,2.117128500016406,2.350620400160551,1,0.5111386000644416,0.7111693001352251,0,0.29542109998874366,0.4954496000427753,,,60.0,69.0,26839,60.0,
-77,77,-45,20,11,331,4,,,,,,,,,,,session,3909.7185581999365,138.0,2.0,72.0,0.008430545721398832,3,0.48757750005461276,0.7191585002001375,1,0.9558849998284131,1.1727870998438448,0,0.553786699892953,0.7848563999868929,,,51.0,48.0,26839,60.0,
77,-77,-45,20,12,332,8,,,,,,,,,,,session,3917.8191015999764,168.0,2.0,72.0,0.008430545721398832,5,0.5551532998215407,0.7720716998446733,1,0.4567193000111729,0.6235230001620948,0,0.3573308000341058,0.5207962000276893,,,66.0,60.0,26839,60.0,
-77,-77,0,20,13,333,13,,,,,,,,,,,session,3926.0739015000872,156.0,2.0,72.0,0.1,3,0.3393872999586165,0.509885200066492,0,0.5373403001576662,0.7568169001024216,6,0.42976749991066754,0.6630720000248402,,,54.0,60.0,26839,60.0,
77,-77,0,20,14,334,9,,,,,,,,,,,session,3934.413209900027,132.0,2.0,72.0,0.1,4,0.42065200000070035,0.6220323999878019,0,0.5532247999217361,0.7876332998275757,1,0.6889192999806255,0.938881800044328,,,48.0,57.0,26839,60.0,
77,77,-45,20,15,335,0,,,,,,,,,,,session,3942.1523154999595,138.0,2.0,72.0,0.1,5,0.804938199929893,1.0551417998503894,1,0.5559066000860184,0.789803700055927,6,0.8460870999842882,1.0964813001919538,,,60.0,69.0,26839,60.0,
77,77,90,21,0,336,3,,,,,,,,,,,session,3950.9839751999825,126.0,2.0,72.0,0.1,5,0.6478054998442531,0.9131339997984469,6,1.6882943001110107,1.9393221999052912,6,0.30174760008230805,0.5195236001163721,,,54.0,69.0,26839,60.0,
-77,-77,0,21,1,337,13,,,,,,,,,,,session,3960.468457600102,180.0,2.0,72.0,0.008430545721398832,4,0.813617300009355,1.0138056001160294,0,1.3248626000713557,1.474942100001499,0,0.4823139999061823,0.6659013999160379,,,51.0,66.0,26839,60.0,
77,-77,45,21,2,338,10,,,,,,,,,,,session,3970.0222690000664,174.0,2.0,72.0,0.008430545721398832,2,0.94207560014911,1.192495800089091,1,0.43799409992061555,0.6703544000629336,0,0.6011502998881042,0.7680401999969035,,,63.0,72.0,26839,60.0,
-77,77,0,21,3,339,5,,,,,,,,,,,session,3979.733762399992,156.0,2.0,72.0,0.008430545721398832,4,1.101625599898398,1.319720400031656,7,0.9582735002040863,1.2259006001986563,0,0.5377986000385135,0.7050211001187563,,,63.0,57.0,26839,60.0,
-77,77,0,21,3,339,5,,,materials/instructions\12_break.png,3989.04991609999,4009.333572200034,0,20.131524400087073,20.28159369993955,0.021841200068593025,20.289570400025696,,,,,,,,,,,,,,,,,,,,26839,60.0,
-77,77,90,21,4,340,7,,,,,,,,,,,session,4009.349469299894,138.0,2.0,72.0,0.008430545721398832,5,1.3845148000400513,1.583852899959311,6,0.39155120006762445,0.6075308001600206,0,0.5489032999612391,0.7270686998963356,,,72.0,69.0,26839,60.0,
77,-77,0,21,5,341,9,,,,,,,,,,,session,4018.3967973000836,162.0,2.0,72.0,0.008430545721398832,2,0.9020207000430673,1.2029848999809474,0,0.6706638999748975,0.8889409000985324,0,0.4010866000317037,0.5511587001383305,,,69.0,72.0,26839,60.0,
77,77,45,21,6,342,2,,,,,,,,,,,session,4027.7325108000077,156.0,2.0,72.0,0.008430545721398832,4,0.4718237000051886,0.6552519998513162,6,0.7416942999698222,0.9431121000088751,0,0.5548423998989165,0.7883478999137878,,,63.0,57.0,26839,60.0,
-77,-77,45,21,7,343,14,,,,,,,,,,,session,4036.156299599912,180.0,2.0,72.0,0.1,3,0.378915699897334,0.5791328998748213,7,0.8389896000735462,1.1033547001425177,6,0.40436759986914694,0.6215411999728531,,,72.0,63.0,26839,60.0,
