x,y,orientation,.thisRepN,.thisTrialN,.thisN,.thisIndex,.stepSize,.intensity,image_name,global_start_time,global_end_time,pressKey,pressRT,releaseRT,image_started,image_ended,name,globalTime,fixation_dur,stimulation_dur,post_fixation,opacity,locationResponse_pressKey,locationResponse_pressRT,locationResponse_releaseRT,orientationResponse_pressKey,orientationResponse_pressRT,orientationResponse_releaseRT,pasResponse_pressKey,pasResponse_pressRT,pasResponse_releaseRT,.response,finalOpacity,postLoc,postOri,ID,frameRate,
,,,0,-1,-1,0,0.0969100130080564,None,materials/instructions\1_welcome.png,4.284081800142303,49.37178450007923,0,44.98420489998534,45.0855352000799,0.05617650016210973,45.085258200066164,,,,,,,,,,,,,,,,,,,,27942,60.0,
,,,0,-1,-1,0,0.0969100130080564,None,materials/instructions\2_instruction.png,49.423295200103894,75.16532910009846,0,25.56671839999035,25.739874799968675,0.018510399851948023,25.758102599997073,,,,,,,,,,,,,,,,,,,,27942,60.0,
,,,0,-1,-1,0,0.0969100130080564,None,materials/instructions\3_location_demo.png,75.23648410011083,87.98373850015923,0,12.545298699988052,12.745139899896458,0.024874600116163492,12.753284699982032,,,,,,,,,,,,,,,,,,,,27942,60.0,
,,,0,-1,-1,0,0.0969100130080564,None,materials/instructions\4_orientation_demo.png,88.0377787000034,107.98271310003474,0,19.74275299999863,19.942842799937353,0.015459099784493446,19.94958099978976,,,,,,,,,,,,,,,,,,,,27942,60.0,
,,,0,-1,-1,0,0.0969100130080564,None,materials/instructions\5_pas_demo.png,108.03912780014798,121.51053560012951,0,13.252966099884361,13.469698299886659,0.01363519998267293,13.480369600001723,,,,,,,,,,,,,,,,,,,,27942,60.0,
-77,77,-45,0,-1,-1,0,0.0969100130080564,None,,,,,,,,,session,121.53005119995214,168.0,2.0,72.0,1.0,2,0.10950310016050935,0.391517800046131,1,2.579216299811378,2.8794256998226047,6,7.7951324000023305,7.946015600115061,,,,,27942,60.0,
77,77,45,0,-1,-1,0,0.0969100130080564,None,,,,,,,,,session,136.9406539001502,138.0,2.0,72.0,1.0,5,0.21374729997478426,0.44875199999660254,7,1.3164611000102013,1.536064299987629,7,2.9565520000178367,3.190072499914095,,,,,27942,60.0,
77,77,0,0,-1,-1,0,0.0969100130080564,None,,,,,,,,,session,146.24907010002062,180.0,2.0,72.0,1.0,5,0.3644932000897825,0.6471095001325011,0,1.6720477999188006,1.8887952999211848,6,1.9203143001068383,2.1204025000333786,,,,,27942,60.0,
77,77,-45,0,-1,-1,0,0.0969100130080564,None,,,,,,,,,session,155.28779230010696,126.0,2.0,72.0,1.0,5,0.15091120009310544,0.4336965000256896,1,1.0733410001266748,1.29018360003829,6,1.5304874000139534,1.7735375999473035,,,,,27942,60.0,
77,77,90,0,-1,-1,0,0.0969100130080564,None,,,,,,,,,session,162.27870930009522,174.0,2.0,72.0,1.0,5,0.011558299884200096,0.9329601000063121,1,3.874616099987179,4.108136400114745,1,2.099557999987155,2.2997535998001695,,,,,27942,60.0,
,,,0,-1,-1,0,0.0969100130080564,None,materials/instructions\10_staircase_start.png,174.32688609999605,192.24552939995192,0,17.71910659992136,17.91642690007575,0.010281700175255537,17.924488400109112,,,,,,,,,,,,,,,,,,,,27942,60.0,
,,,0,0,-1,0,0.0969100130080564,0.4,,,,,,,,,staircase,192.26032919995487,150.0,2.0,72.0,0.4,,,,0,0.7503775998484343,0.9322159998118877,,,,1,,,,27942,60.0,
,,,0,1,-1,0,0.0969100130080564,0.32,,,,,,,,,staircase,197.0176071000751,180.0,2.0,72.0,0.32,,,,0,0.2517593998927623,0.45043920003809035,,,,1,,,,27942,60.0,
,,,0,2,-1,0,0.0969100130080564,0.256,,,,,,,,,staircase,201.7879314001184,156.0,2.0,72.0,0.256,,,,6,0.011401599971577525,0.013193299993872643,,,,1,,,,27942,60.0,
,,,0,3,-1,0,0.0969100130080564,0.2048,,,,,,,,,staircase,205.89343960001133,144.0,2.0,72.0,0.2048,,,,1,0.3337650001049042,0.5698705001268536,,,,1,,,,27942,60.0,
,,,0,4,-1,0,0.0969100130080564,0.16384,,,,,,,,,staircase,210.71695220004767,144.0,2.0,72.0,0.16384,,,,1,0.5818450001534075,0.7819703000131994,,,,0,,,,27942,60.0,
,,,0,5,-1,0,0.0969100130080564,0.2048,,,,,,,,,staircase,215.23223620001227,144.0,2.0,72.0,0.2048,,,,0,0.3173078999388963,0.4986590000335127,,,,1,,,,27942,60.0,
,,,0,6,-1,0,0.0969100130080564,0.16384,,,,,,,,,staircase,219.4520154001657,144.0,2.0,72.0,0.16384,,,,0,0.01154299988411367,0.03359210002236068,,,,1,,,,27942,60.0,
,,,0,7,-1,0,0.0969100130080564,0.13107200000000002,,,,,,,,,staircase,223.20264949998818,156.0,2.0,72.0,0.13107200000000002,,,,1,0.30595709988847375,0.5563842998817563,,,,1,,,,27942,60.0,
,,,0,8,-1,0,0.0969100130080564,0.10485760000000002,,,,,,,,,staircase,227.67580129997805,180.0,2.0,72.0,0.10485760000000002,,,,6,0.28023659996688366,0.46433359989896417,,,,1,,,,27942,60.0,
,,,0,9,-1,0,0.0969100130080564,0.08388608000000002,,,,,,,,,staircase,233.04862620006315,180.0,2.0,72.0,0.08388608000000002,,,,1,0.3422586000524461,0.5588192001450807,,,,1,,,,27942,60.0,
,,,0,10,-1,0,0.0969100130080564,0.06710886400000002,,,,,,,,,staircase,237.9190434999764,144.0,2.0,72.0,0.06710886400000002,,,,6,0.38511979999020696,0.9527346999384463,,,,0,,,,27942,60.0,
,,,0,11,-1,0,0.0969100130080564,0.08388608000000003,,,,,,,,,staircase,242.58658740017563,150.0,2.0,72.0,0.08388608000000003,,,,6,0.28495749994181097,0.4508589000906795,,,,1,,,,27942,60.0,
,,,0,12,-1,0,0.0969100130080564,0.06710886400000002,,,,,,,,,staircase,246.85591050004587,126.0,2.0,72.0,0.06710886400000002,,,,7,0.9077790998853743,1.066895900061354,,,,1,,,,27942,60.0,
,,,0,13,-1,0,0.0969100130080564,0.053687091200000016,,,,,,,,,staircase,251.4170335000381,174.0,2.0,72.0,0.053687091200000016,,,,7,0.033778500044718385,0.3174445000477135,,,,1,,,,27942,60.0,
,,,0,14,-1,0,0.0969100130080564,0.04294967296000001,,,,,,,,,staircase,256.0147786999587,162.0,2.0,72.0,0.04294967296000001,,,,6,0.3039537000004202,0.4867849999573082,,,,1,,,,27942,60.0,
,,,0,15,-1,0,0.0969100130080564,0.034359738368000006,,,,,,,,,staircase,260.53303509997204,138.0,2.0,72.0,0.034359738368000006,,,,0,0.05553730018436909,0.29144780011847615,,,,1,,,,27942,60.0,
,,,0,16,-1,0,0.0969100130080564,0.027487790694400004,,,,,,,,,staircase,264.43656870000996,144.0,2.0,72.0,0.027487790694400004,,,,0,0.37092059990391135,0.6377278999425471,,,,1,,,,27942,60.0,
,,,0,17,-1,0,0.0969100130080564,0.021990232555520003,,,,,,,,,staircase,268.77422080002725,180.0,2.0,72.0,0.021990232555520003,,,,7,0.789496700046584,0.9893837000709027,,,,1,,,,27942,60.0,
,,,0,18,-1,0,0.0969100130080564,0.017592186044416,,,,,,,,,staircase,274.5014933999628,126.0,2.0,72.0,0.017592186044416,,,,0,3.6558482002001256,3.8563529001548886,,,,0,,,,27942,60.0,
,,,0,19,-1,0,0.0969100130080564,0.021990232555520003,,,,,,,,,staircase,281.78602190013044,180.0,2.0,72.0,0.021990232555520003,,,,6,0.27704540011473,0.4936403001192957,,,,1,,,,27942,60.0,
,,,0,20,-1,0,0.0969100130080564,0.017592186044416,,,,,,,,,staircase,286.6026950001251,144.0,2.0,72.0,0.017592186044416,,,,7,0.6046921000815928,0.8208765999879688,,,,1,,,,27942,60.0,
,,,0,21,-1,0,0.0969100130080564,0.014073748835532801,,,,,,,,,staircase,291.1403697000351,174.0,2.0,72.0,0.014073748835532801,,,,7,2.7831164998933673,2.9997446998022497,,,,0,,,,27942,60.0,
,,,0,22,-1,0,0.0969100130080564,0.017592186044416,,,,,,,,,staircase,298.78431060002185,132.0,2.0,72.0,0.017592186044416,,,,6,25.46530249994248,25.631869500037283,,,,1,,,,27942,60.0,
,,,0,23,-1,0,0.0969100130080564,0.014073748835532801,,,,,,,,,staircase,327.95097950007766,138.0,2.0,72.0,0.014073748835532801,,,,6,42.09765119990334,42.23071100004017,,,,1,,,,27942,60.0,
,,,0,24,-1,0,0.0969100130080564,0.01125899906842624,,,,,,,,,staircase,373.8037550000008,138.0,2.0,72.0,0.01125899906842624,,,,0,1.395015699788928,1.5127170998603106,,,,1,,,,27942,60.0,
,,,0,25,-1,0,0.0969100130080564,0.009007199254740993,,,,,,,,,staircase,378.9250295001548,168.0,2.0,72.0,0.009007199254740993,,,,7,0.49046569992788136,0.695714799920097,,,,0,,,,27942,60.0,
,,,0,26,-1,0,0.0969100130080564,0.01125899906842624,,,,,,,,,staircase,383.98498680000193,138.0,2.0,72.0,0.01125899906842624,,,,6,0.46251260000281036,0.6647022999823093,,,,0,,,,27942,60.0,
,,,0,27,-1,0,0.0969100130080564,0.014073748835532801,,,,,,,,,staircase,388.4350859001279,162.0,2.0,72.0,0.014073748835532801,,,,1,0.300218400079757,0.5507658999413252,,,,0,,,,27942,60.0,
,,,0,28,-1,0,0.0969100130080564,0.017592186044416,,,,,,,,,staircase,393.00071660010144,138.0,2.0,72.0,0.017592186044416,,,,7,0.4040404998231679,0.587250699987635,,,,1,,,,27942,60.0,
,,,0,29,-1,0,0.0969100130080564,0.014073748835532801,,,,,,,,,staircase,397.2037784999702,150.0,2.0,72.0,0.014073748835532801,,,,0,0.4561942999716848,0.622880999930203,,,,1,,,,27942,60.0,
,,,0,30,-1,0,0.0969100130080564,0.01125899906842624,,,,,,,,,staircase,401.64039180008695,144.0,2.0,72.0,0.01125899906842624,,,,6,0.5610260001849383,0.6996150000486523,,,,1,,,,27942,60.0,
,,,0,31,-1,0,0.0969100130080564,0.009007199254740993,,,,,,,,,staircase,406.46854010014795,168.0,2.0,72.0,0.009007199254740993,,,,1,0.5545202998910099,0.6715263999067247,,,,0,,,,27942,60.0,
,,,0,32,-1,0,0.0969100130080564,0.01125899906842624,,,,,,,,,staircase,411.3527923000511,138.0,2.0,72.0,0.01125899906842624,,,,7,0.605206900043413,0.7726953001692891,,,,0,,,,27942,60.0,
,,,0,33,-1,0,0.0969100130080564,0.014073748835532801,,,,,,,,,staircase,415.7531632001046,174.0,2.0,72.0,0.014073748835532801,,,,6,0.4869482000358403,0.6369841999839991,,,,1,,,,27942,60.0,
,,,0,34,-1,0,0.0969100130080564,0.01125899906842624,,,,,,,,,staircase,420.6215773001313,156.0,2.0,72.0,0.01125899906842624,,,,7,0.538470699917525,0.6699127000756562,,,,0,,,,27942,60.0,
,,,0,35,-1,0,0.0969100130080564,0.014073748835532801,,,,,,,,,staircase,425.20893070008606,168.0,2.0,72.0,0.014073748835532801,,,,1,0.5331741000991315,0.6468029001262039,,,,0,,,,27942,60.0,
,,,0,36,-1,0,0.0969100130080564,0.017592186044416,,,,,,,,,staircase,430.58255020016804,180.0,2.0,72.0,0.017592186044416,,,,0,1.0457403000909835,1.1959379001054913,,,,0,,,,27942,60.0,
,,,0,37,-1,0,0.0969100130080564,0.021990232555520003,,,,,,,,,staircase,436.10089180013165,156.0,2.0,72.0,0.021990232555520003,,,,7,0.701413500122726,0.9366357999388129,,,,1,,,,27942,60.0,
,,,0,38,-1,0,0.0969100130080564,0.017592186044416,,,,,,,,,staircase,440.95503980014473,132.0,2.0,72.0,0.017592186044416,,,,6,0.5038785000797361,0.7039662001188844,,,,0,,,,27942,60.0,
,,,0,39,-1,0,0.0969100130080564,0.021990232555520003,,,,,,,,,staircase,445.1748144000303,126.0,2.0,72.0,0.021990232555520003,,,,6,0.3550074999220669,0.5995796998031437,,,,0,,,,27942,60.0,
,,,0,40,-1,0,0.0969100130080564,0.027487790694400004,,,,,,,,,staircase,449.2301922000479,168.0,2.0,72.0,0.027487790694400004,,,,1,0.011787499999627471,0.013662500074133277,,,,1,,,,27942,60.0,
,,,0,41,-1,0,0.0969100130080564,0.021990232555520003,,,,,,,,,staircase,453.8150198000949,150.0,2.0,72.0,0.021990232555520003,,,,7,0.6410161000676453,0.8913162001408637,,,,0,,,,27942,60.0,
,,,0,42,-1,0,0.0969100130080564,0.027487790694400004,,,,,,,,,staircase,458.5200676000677,126.0,2.0,72.0,0.027487790694400004,,,,0,0.5394834999460727,0.7564463999588042,,,,1,,,,27942,60.0,
,,,0,43,-1,0,0.0969100130080564,0.021990232555520003,,,,,,,,,staircase,462.68807120015845,144.0,2.0,72.0,0.021990232555520003,,,,0,0.3348942999728024,0.5373358000069857,,,,1,,,,27942,60.0,
,,,0,44,-1,0,0.0969100130080564,0.017592186044416,,,,,,,,,staircase,466.9430949999951,126.0,2.0,72.0,0.017592186044416,,,,0,1.166939599905163,1.4117449999321252,,,,1,,,,27942,60.0,
,,,0,45,-1,0,0.0969100130080564,0.014073748835532801,,,,,,,,,staircase,471.9641458999831,174.0,2.0,72.0,0.014073748835532801,,,,7,0.9798381000291556,1.2304833000525832,,,,0,,,,27942,60.0,
,,,0,46,-1,0,0.0969100130080564,0.017592186044416,,,,,,,,,staircase,477.68431130005047,180.0,2.0,72.0,0.017592186044416,,,,6,0.6411949000321329,0.858288099989295,,,,0,,,,27942,60.0,
,,,0,47,-1,0,0.0969100130080564,0.021990232555520003,,,,,,,,,staircase,482.8532171000261,144.0,2.0,72.0,0.021990232555520003,,,,0,0.9191374001093209,1.1693091001361609,,,,1,,,,27942,60.0,
,,,0,48,-1,0,0.0969100130080564,0.017592186044416,,,,,,,,,staircase,487.7401253001299,150.0,2.0,72.0,0.017592186044416,,,,6,0.39962679985910654,0.6498934000264853,,,,0,,,,27942,60.0,
,,,0,49,-1,0,0.0969100130080564,0.021990232555520003,,,,,,,,,staircase,492.22721859999,156.0,2.0,72.0,0.021990232555520003,,,,1,0.5579571002162993,0.8913071001879871,,,,0,,,,27942,60.0,
,,,0,50,-1,0,0.0969100130080564,0.027487790694400004,,,,,,,,,staircase,497.68609239999205,138.0,2.0,72.0,0.027487790694400004,,,,0,0.3640737999230623,0.5973232998512685,,,,1,,,,27942,60.0,
,,,0,51,-1,0,0.0969100130080564,0.021990232555520003,,,,,,,,,staircase,501.91749650007114,156.0,2.0,72.0,0.021990232555520003,,,,0,0.01148089999333024,0.25357109983451664,,,,1,,,,27942,60.0,
,,,0,52,-1,0,0.0969100130080564,0.017592186044416,,,,,,,,,staircase,506.08662670012563,180.0,2.0,72.0,0.017592186044416,,,,7,0.5437763000372797,0.9285305000375956,,,,0,,,,27942,60.0,
,,,0,53,-1,0,0.0969100130080564,0.021990232555520003,,,,,,,,,staircase,511.3419689000584,132.0,2.0,72.0,0.021990232555520003,,,,6,0.6502940999343991,1.2170527998823673,,,,0,,,,27942,60.0,
,,,0,54,-1,0,0.0969100130080564,0.027487790694400004,,,,,,,,,staircase,516.169586900156,162.0,2.0,72.0,0.027487790694400004,,,,0,0.30520349997095764,0.5573817000258714,,,,1,,,,27942,60.0,
,,,0,55,-1,0,0.0969100130080564,0.021990232555520003,,,,,,,,,staircase,521.0361419001129,180.0,2.0,72.0,0.021990232555520003,,,,6,0.737324699992314,1.021907600108534,,,,0,,,,27942,60.0,
,,,0,56,-1,0,0.0969100130080564,0.027487790694400004,,,,,,,,,staircase,526.3719331000466,162.0,2.0,72.0,0.027487790694400004,,,,1,0.5413691001012921,0.8253667000681162,,,,1,,,,27942,60.0,
,,,0,57,-1,0,0.0969100130080564,0.021990232555520003,,,,,,,,,staircase,531.2089128999505,144.0,2.0,72.0,0.021990232555520003,,,,1,1.1039507000241429,1.3554681001696736,,,,1,,,,27942,60.0,
,,,0,58,-1,0,0.0969100130080564,0.017592186044416,,,,,,,,,staircase,536.2776750000194,144.0,2.0,72.0,0.017592186044416,,,,7,1.3629646999761462,1.5788851999677718,,,,0,,,,27942,60.0,
,,,0,59,-1,0,0.0969100130080564,0.021990232555520003,,,,,,,,,staircase,542.1672756001353,180.0,2.0,72.0,0.021990232555520003,,,,6,1.1861757000442594,1.35379260010086,,,,0,,,,27942,60.0,
,,,0,60,-1,0,0.0969100130080564,0.027487790694400004,,,,,,,,,staircase,547.8390854999889,156.0,2.0,72.0,0.027487790694400004,,,,0,0.4032340000849217,0.6201470999512821,,,,1,,,,27942,60.0,
,,,0,61,-1,0,0.0969100130080564,0.021990232555520003,,,,,,,,,staircase,552.372290499974,168.0,2.0,72.0,0.021990232555520003,,,,6,0.5682812999002635,0.8178379000164568,,,,0,,,,27942,60.0,
,,,0,62,-1,0,0.0969100130080564,0.027487790694400004,,,,,,,,,staircase,557.309595100116,126.0,2.0,72.0,0.027487790694400004,,,,1,0.2497916000429541,0.5164985000155866,,,,1,,,,27942,60.0,
,,,0,63,-1,0,0.0969100130080564,0.021990232555520003,,,,,,,,,staircase,561.7541172001511,180.0,2.0,72.0,0.021990232555520003,,,,7,0.5879176000598818,0.8553842001128942,,,,1,,,,27942,60.0,
,,,0,64,-1,0,0.0969100130080564,0.017592186044416,,,,,,,,,staircase,566.9372676999774,126.0,2.0,72.0,0.017592186044416,,,,0,0.3193575998302549,0.5695704999379814,,,,1,,,,27942,60.0,
,,,0,65,-1,0,0.0969100130080564,0.014073748835532801,,,,,,,,,staircase,570.9365585001651,126.0,2.0,72.0,0.014073748835532801,,,,6,0.8069215998984873,1.0386338999960572,,,,1,,,,27942,60.0,
,,,0,66,-1,0,0.0969100130080564,0.01125899906842624,,,,,,,,,staircase,575.3888555001467,162.0,2.0,72.0,0.01125899906842624,,,,1,0.43870589998550713,0.686973299831152,,,,0,,,,27942,60.0,
,,,0,67,-1,0,0.0969100130080564,0.014073748835532801,,,,,,,,,staircase,580.0923312001396,144.0,2.0,72.0,0.014073748835532801,,,,7,1.5789731999393553,1.8470797000918537,,,,0,,,,27942,60.0,
,,,0,68,-1,0,0.0969100130080564,0.017592186044416,,,,,,,,,staircase,586.3202595000621,180.0,2.0,72.0,0.017592186044416,,,,6,0.6740669999271631,0.9036214000079781,,,,0,,,,27942,60.0,
,,,0,69,-1,0,0.0969100130080564,0.021990232555520003,,,,,,,,,staircase,591.5345668999944,168.0,2.0,72.0,0.021990232555520003,,,,1,0.5886917000170797,0.9071688000112772,,,,0,,,,27942,60.0,
,,,0,-1,-1,0,,,materials/instructions\11_session_start.png,596.5920335000847,610.6498187000398,0,13.790641200030223,14.055536899948493,0.016594599932432175,14.063443599967286,,,,,,,,,,,,,,,,,,,,27942,60.0,
,,,0,-1,-1,0,,,,,,,,,,,,,,,,,,,,,,,,,,,0.021097429113765893,,,27942,60.0,
77,77,45,0,0,0,2,,,,,,,,,,,session,610.6653079001699,162.0,2.0,72.0,0.021097429113765893,5,1.3109641999471933,1.4964045998640358,7,2.5607840998563915,2.7431181999854743,1,2.033283800119534,2.2667024999391288,,,69.0,54.0,27942,60.0,
77,-77,90,0,1,1,11,,,,,,,,,,,session,623.3780269999988,168.0,2.0,72.0,0.4,4,0.011000700062140822,0.22637720010243356,6,0.06484659994021058,0.31619199994020164,6,1.6546986000612378,1.8381062000989914,,,69.0,66.0,27942,60.0,
77,77,-45,0,2,2,0,,,,,,,,,,,session,632.8581966999918,162.0,2.0,72.0,0.021097429113765893,5,1.035961699904874,1.2519457000307739,1,0.5066454000771046,0.7084751001093537,1,1.4864088001195341,1.6864996999502182,,,54.0,63.0,27942,60.0,
-77,-77,45,0,3,3,14,,,,,,,,,,,session,642.6102978000417,144.0,2.0,72.0,0.4,3,0.5324910001363605,0.7658178000710905,7,1.2119869000744075,1.428644800093025,7,2.065110299969092,2.282351100118831,,,48.0,72.0,27942,60.0,
-77,-77,90,0,4,4,15,,,,,,,,,,,session,652.9365926999599,150.0,2.0,72.0,0.021097429113765893,2,1.8692403000313789,2.1528447000309825,1,0.40552880009636283,0.604679899988696,0,0.30420319992117584,0.5526137999258935,,,69.0,66.0,27942,60.0,
77,-77,45,0,5,5,10,,,,,,,,,,,session,662.4410892000888,180.0,2.0,72.0,0.021097429113765893,4,0.34246310009621084,0.6093898999970406,7,0.9751300001516938,1.1644262000918388,1,0.16025449987500906,0.4433144999202341,,,72.0,72.0,27942,60.0,
-77,-77,-45,0,6,6,12,,,,,,,,,,,session,671.5066802999936,180.0,2.0,72.0,0.021097429113765893,2,1.5154707999899983,1.7818587999790907,6,0.011520700063556433,0.09944680007174611,0,0.010997100034728646,0.31469570007175207,,,60.0,57.0,27942,60.0,
77,-77,0,0,7,7,9,,,,,,,,,,,session,680.2373645000625,174.0,2.0,72.0,0.021097429113765893,4,0.939329800195992,1.1238831002265215,0,0.31547689996659756,0.5661651000846177,1,1.319787499960512,1.535854899790138,,,57.0,48.0,27942,60.0,
77,77,0,0,8,8,1,,,,,,,,,,,session,689.5444198001642,180.0,2.0,72.0,0.021097429113765893,5,1.3435736000537872,1.6250680000521243,6,0.3879071001429111,0.605479400139302,0,0.01102739991620183,0.16906200000084937,,,48.0,69.0,27942,60.0,
-77,77,90,0,9,9,7,,,,,,,,,,,session,699.0416902999859,132.0,2.0,72.0,0.021097429113765893,2,2.066975399851799,2.283730400027707,1,0.5868084998801351,0.8210330000147223,0,0.24775510001927614,0.5319586000405252,,,48.0,54.0,27942,60.0,
-77,77,0,0,10,10,5,,,,,,,,,,,session,708.0434604999609,138.0,2.0,72.0,0.4,2,0.011145099997520447,0.31880979984998703,0,0.29923860006965697,0.5653927999082953,6,0.1954938000999391,0.4405930999200791,,,63.0,57.0,27942,60.0,
-77,77,-45,0,11,11,4,,,,,,,,,,,session,715.1189886999782,144.0,2.0,72.0,0.021097429113765893,2,0.010944099863991141,0.02806439995765686,1,0.6066919001750648,0.8557435001712292,1,1.3012006001081318,1.5179953998886049,,,72.0,51.0,27942,60.0,
77,77,90,0,12,12,3,,,,,,,,,,,session,723.6890821000561,156.0,2.0,72.0,0.4,5,0.011282999999821186,0.013224099995568395,6,0.011475699953734875,0.013407899998128414,6,1.8072065999731421,2.0264204998966306,,,72.0,54.0,27942,60.0,
-77,-77,0,0,13,13,13,,,,,,,,,,,session,731.8953176001087,150.0,2.0,72.0,0.4,3,0.010828500147908926,0.2530007001478225,0,0.33477070019580424,0.5130059001967311,7,0.5430439000483602,0.7135105000343174,,,48.0,72.0,27942,60.0,
77,-77,-45,0,14,14,8,,,,,,,,,,,session,739.3583057001233,168.0,2.0,72.0,0.021097429113765893,5,1.2804912000428885,1.5440573000814766,6,0.9725948001723737,1.188562300056219,0,0.2344081001356244,0.5164659000001848,,,66.0,60.0,27942,60.0,
-77,77,45,0,15,15,6,,,,,,,,,,,session,748.9732576999813,162.0,2.0,72.0,0.021097429113765893,4,1.6188361998647451,1.835541799897328,6,0.0858527000527829,0.36949210008606315,0,0.8722469999920577,1.144461699994281,,,60.0,57.0,27942,60.0,
77,-77,45,1,0,16,10,,,,,,,,,,,session,758.4241745001636,150.0,2.0,72.0,0.021097429113765893,3,1.5451169000007212,1.7950414000079036,7,0.01204840000718832,0.2851615999825299,0,0.01101140002720058,0.18505009985528886,,,72.0,57.0,27942,60.0,
77,-77,90,1,1,17,11,,,,,,,,,,,session,767.3089698001277,126.0,2.0,72.0,0.021097429113765893,4,0.3174002000596374,0.5341403998900205,6,0.4248062998522073,0.5917291999794543,1,0.5860413000918925,0.8029996000695974,,,63.0,57.0,27942,60.0,
77,77,0,1,2,18,1,,,,,,,,,,,session,774.794471600093,144.0,2.0,72.0,0.021097429113765893,3,0.968442999990657,1.2019465998746455,7,0.32820760016329587,0.5181112999562174,0,1.169563699979335,1.4030758999288082,,,57.0,66.0,27942,60.0,
-77,-77,90,1,3,19,15,,,,,,,,,,,session,783.8089597001672,174.0,2.0,72.0,0.021097429113765893,2,2.0123921998310834,2.2957623000256717,6,0.011610199930146337,0.013517800020053983,0,0.5496907001361251,1.3680724001023918,,,72.0,72.0,27942,60.0,
-77,-77,90,1,3,19,15,,,materials/instructions\12_break.png,794.2915123000275,813.4710546000861,0,18.96057550003752,19.177429100032896,0.017986400052905083,19.18518320005387,,,,,,,,,,,,,,,,,,,,27942,60.0,
77,77,45,1,4,20,2,,,,,,,,,,,session,813.4866575000342,168.0,2.0,72.0,0.021097429113765893,5,0.8118705998640507,1.0284833000041544,7,2.087488600052893,2.255355400033295,1,0.5323479999788105,0.5991030998993665,,,60.0,51.0,27942,60.0,
77,-77,0,1,5,21,9,,,,,,,,,,,session,823.4805614000652,156.0,2.0,72.0,0.4,4,0.01096850004978478,0.16069329995661974,0,0.011501599801704288,0.1528306999243796,7,0.8856647000648081,1.1022573001682758,,,60.0,63.0,27942,60.0,
-77,77,90,1,6,22,7,,,,,,,,,,,session,831.5737402001396,174.0,2.0,72.0,0.021097429113765893,2,0.41629149997606874,0.7001130999997258,6,1.2227433000225574,1.4394749999046326,0,0.33434459986165166,0.55188769986853,,,48.0,63.0,27942,60.0,
-77,77,0,1,7,23,5,,,,,,,,,,,session,840.4612384999637,126.0,2.0,72.0,0.021097429113765893,4,1.3523935999255627,1.5359157000202686,1,0.43386860005557537,0.6783119000028819,0,0.04566249996423721,0.3109699999913573,,,69.0,69.0,27942,60.0,
77,77,90,1,8,24,3,,,,,,,,,,,session,848.8375784000382,132.0,2.0,72.0,0.021097429113765893,5,1.1874737001489848,1.4057291001081467,6,0.011507799848914146,0.013306699926033616,0,2.0474046000745147,2.265159600181505,,,69.0,63.0,27942,60.0,
-77,-77,45,1,9,25,14,,,,,,,,,,,session,858.3760224001016,126.0,2.0,72.0,0.4,3,0.35153009998612106,0.6518081000540406,7,0.9047112998086959,1.1390664998907596,1,0.8346333000808954,1.0490925000049174,,,57.0,48.0,27942,60.0,
-77,-77,0,1,10,26,13,,,,,,,,,,,session,866.5141737000085,138.0,2.0,72.0,0.021097429113765893,4,1.3282760998699814,1.478479899931699,6,0.6364632002077997,0.8199417002033442,0,0.35140899987891316,0.5524605999235064,,,72.0,72.0,27942,60.0,
-77,-77,-45,1,11,27,12,,,,,,,,,,,session,875.9923316000495,126.0,2.0,72.0,0.4,3,0.012400000123307109,0.014317000051960349,1,0.3846246001776308,0.6014826002065092,6,0.33594220015220344,0.5709108000155538,,,63.0,51.0,27942,60.0,
77,77,-45,1,12,28,0,,,,,,,,,,,session,882.6445755001623,162.0,2.0,72.0,0.021097429113765893,5,0.8701548001263291,1.1035992000252008,7,0.21992660011164844,0.468499300070107,0,0.30901470012031496,0.5314195000100881,,,63.0,57.0,27942,60.0,
-77,77,45,1,13,29,6,,,,,,,,,,,session,890.8922484000213,156.0,2.0,72.0,0.4,2,0.043319599935784936,0.34675389993935823,7,0.7846591998822987,1.019930899841711,6,1.2195002001244575,1.4519080000463873,,,57.0,51.0,27942,60.0,
-77,77,-45,1,14,30,4,,,,,,,,,,,session,900.0571836000308,144.0,2.0,72.0,0.021097429113765893,5,1.817304000025615,2.068689800100401,7,0.0429712999612093,0.26137419999577105,0,0.36830500001087785,0.5656708001624793,,,54.0,66.0,27942,60.0,
77,-77,-45,1,15,31,8,,,,,,,,,,,session,908.7955446999986,180.0,2.0,72.0,0.4,4,0.10775609989650548,0.3244648000691086,1,0.622342900140211,0.8661738000810146,6,1.7844348000362515,1.9670573000330478,,,66.0,57.0,27942,60.0,
-77,-77,0,2,0,32,13,,,,,,,,,,,session,918.572308300063,132.0,2.0,72.0,0.4,3,0.010974899865686893,0.1630249998997897,0,0.011607100022956729,0.18819610006175935,6,0.3024530000984669,0.5004008000250906,,,51.0,69.0,27942,60.0,
77,-77,0,2,1,33,9,,,,,,,,,,,session,925.0915341000073,126.0,2.0,72.0,0.021097429113765893,5,0.9589237999171019,1.190904299961403,1,0.011368100065737963,0.15634729992598295,0,0.01118170004338026,0.013253699988126755,,,69.0,63.0,27942,60.0,
-77,77,90,2,2,34,7,,,,,,,,,,,session,932.1937766999472,138.0,2.0,72.0,0.021097429113765893,2,1.3530041000340134,1.6196868000552058,1,1.1347666000947356,1.4024212001822889,1,0.293367899954319,0.5433239999692887,,,66.0,54.0,27942,60.0,
77,-77,45,2,3,35,10,,,,,,,,,,,session,941.8244066000916,144.0,2.0,72.0,0.4,4,0.011658299947157502,0.013606399996206164,7,2.255370299797505,2.472960899816826,1,0.43975890008732677,0.7062925000209361,,,72.0,51.0,27942,60.0,
77,-77,90,2,4,36,11,,,,,,,,,,,session,950.9131486001424,144.0,2.0,72.0,0.021097429113765893,5,1.0365596001502126,1.3017997001297772,6,0.4142932000104338,0.659412199864164,0,0.15275639994069934,0.44077320001088083,,,60.0,63.0,27942,60.0,
77,-77,-45,2,5,37,8,,,,,,,,,,,session,959.2435441000853,132.0,2.0,72.0,0.021097429113765893,2,1.702326500089839,2.0019138001371175,0,0.3364530000835657,0.586240200093016,0,0.23071020003408194,0.5982661000452936,,,63.0,54.0,27942,60.0,
-77,-77,-45,2,6,38,12,,,,,,,,,,,session,968.0582085000351,138.0,2.0,72.0,0.021097429113765893,5,1.2033626001793891,1.4184159999713302,6,0.26936009991914034,0.48598300013691187,0,0.26861690008081496,0.5031765000894666,,,48.0,60.0,27942,60.0,
77,77,-45,2,7,39,0,,,,,,,,,,,session,976.016173500102,168.0,2.0,72.0,0.021097429113765893,5,0.18873139983043075,0.46160199982114136,1,0.6661063998471946,0.8678334997966886,1,0.28457530005834997,0.4845632000360638,,,72.0,54.0,27942,60.0,
77,77,-45,2,7,39,0,,,materials/instructions\12_break.png,984.7006912000943,999.9454116001725,0,15.058373099891469,15.242531699826941,0.02106379996985197,15.2503039999865,,,,,,,,,,,,,,,,,,,,27942,60.0,
-77,77,45,2,8,40,6,,,,,,,,,,,session,999.9605362999719,150.0,2.0,72.0,0.4,2,0.3063640999607742,0.5730996998026967,7,0.6355047000106424,0.8521767999045551,6,0.3671927999239415,0.5507067998405546,,,54.0,48.0,27942,60.0,
77,77,90,2,9,41,3,,,,,,,,,,,session,1008.2074629999697,156.0,2.0,72.0,0.021097429113765893,5,0.8009114998858422,1.0356188998557627,6,0.011531699914485216,0.013442899798974395,0,0.26885519991628826,0.4695435999892652,,,63.0,66.0,27942,60.0,
77,77,45,2,10,42,2,,,,,,,,,,,session,1015.9287072999869,180.0,2.0,72.0,0.021097429113765893,5,0.3126561001408845,0.5795706000644714,7,0.8694353001192212,1.0696038999594748,1,0.3927899000700563,0.6145884001161903,,,60.0,69.0,27942,60.0,
-77,-77,90,2,11,43,15,,,,,,,,,,,session,1024.8098765001632,156.0,2.0,72.0,0.021097429113765893,4,0.8854758001398295,1.0521388999186456,6,1.4525568999815732,1.6358282000292093,0,0.39814990013837814,0.6487061001826078,,,66.0,72.0,27942,60.0,
-77,77,0,2,12,44,5,,,,,,,,,,,session,1034.6916765000205,132.0,2.0,72.0,0.021097429113765893,5,1.1842497999314219,1.3853259000461549,6,0.38468679995276034,0.6357507000211626,0,0.06819060002453625,0.4030106000136584,,,48.0,51.0,27942,60.0,
-77,77,-45,2,13,45,4,,,,,,,,,,,session,1042.3975957999937,132.0,2.0,72.0,0.4,2,0.08677420020103455,0.3798780001234263,1,0.7385038000065833,0.952936600195244,6,0.8982600998133421,1.0649214999284595,,,57.0,66.0,27942,60.0,
77,77,0,2,14,46,1,,,,,,,,,,,session,1050.6403489001095,174.0,2.0,72.0,0.021097429113765893,5,0.6586408000439405,0.8585737000685185,7,0.42098650010302663,0.6202534001786262,0,0.35193079989403486,0.5856182998977602,,,51.0,69.0,27942,60.0,
-77,-77,45,2,15,47,14,,,,,,,,,,,session,1059.0765172000974,168.0,2.0,72.0,0.021097429113765893,3,0.4340947000309825,0.6667186999693513,7,0.38566989987157285,0.5852282999549061,1,1.6612979997880757,1.8558845999650657,,,72.0,66.0,27942,60.0,
-77,77,0,3,0,48,5,,,,,,,,,,,session,1068.7385136000812,138.0,2.0,72.0,0.021097429113765893,2,1.1685649000573903,1.4188592000864446,0,0.41538999998010695,0.6482516000978649,0,0.011137499939650297,0.23896090011112392,,,69.0,66.0,27942,60.0,
77,77,0,3,1,49,1,,,,,,,,,,,session,1077.3620788999833,132.0,2.0,72.0,0.021097429113765893,5,0.3026415999047458,0.48618180002085865,0,0.24155190004967153,0.49183430010452867,1,0.20106240012682974,0.43460680008865893,,,66.0,48.0,27942,60.0,
77,-77,45,3,2,50,10,,,,,,,,,,,session,1084.3129174001515,126.0,2.0,72.0,0.021097429113765893,4,0.30222260020673275,0.4856285999994725,7,0.6356625999324024,0.803407299797982,1,0.9792913999408484,1.1120469998568296,,,72.0,63.0,27942,60.0,
77,-77,-45,3,3,51,8,,,,,,,,,,,session,1092.511577800149,156.0,2.0,72.0,0.021097429113765893,4,0.010846100049093366,0.012765299994498491,1,0.37587069999426603,0.5771703000646085,1,0.26057180017232895,0.443077800096944,,,48.0,48.0,27942,60.0,
77,77,-45,3,4,52,0,,,,,,,,,,,session,1099.2266071001068,132.0,2.0,72.0,0.4,5,0.048759400146082044,0.28626850014552474,1,0.6241383999586105,0.8240586000028998,6,0.10290520009584725,0.28678790014237165,,,69.0,54.0,27942,60.0,
-77,77,-45,3,5,53,4,,,,,,,,,,,session,1106.3131220000796,156.0,2.0,72.0,0.4,2,0.011111699976027012,0.2683878999669105,1,0.5811700997874141,0.757810499984771,6,0.01117269997484982,0.2306015999056399,,,57.0,66.0,27942,60.0,
-77,-77,0,3,6,54,13,,,,,,,,,,,session,1113.6731966000516,144.0,2.0,72.0,0.021097429113765893,5,1.304810900008306,1.506541599985212,6,0.4557753000408411,0.6051533001009375,0,0.01196100004017353,0.13246160000562668,,,60.0,69.0,27942,60.0,
77,77,90,3,7,55,3,,,,,,,,,,,session,1121.9910083999857,150.0,2.0,72.0,0.021097429113765893,4,0.7235849001444876,0.8901514001190662,7,0.6760787998791784,0.8751197999808937,0,0.011056799907237291,0.2648964999243617,,,60.0,63.0,27942,60.0,
77,77,45,3,8,56,2,,,,,,,,,,,session,1129.9986660999712,180.0,2.0,72.0,0.021097429113765893,4,0.40451840008608997,0.5827221001964062,7,0.8000318999402225,1.0000650000292808,1,0.13175219995900989,0.43350269994698465,,,48.0,54.0,27942,60.0,
-77,-77,90,3,9,57,15,,,,,,,,,,,session,1138.425646000076,174.0,2.0,72.0,0.021097429113765893,3,1.3505287999287248,1.5839990999083966,1,0.03866069996729493,0.2755554001778364,0,0.10163430008105934,0.4019846001174301,,,63.0,51.0,27942,60.0,
77,-77,0,3,10,58,9,,,,,,,,,,,session,1146.926831800025,174.0,2.0,72.0,0.021097429113765893,4,0.2976702000014484,0.4630732999648899,0,0.01167169981636107,0.013543599983677268,1,0.010947899892926216,0.12236070004291832,,,48.0,48.0,27942,60.0,
77,-77,90,3,11,59,11,,,,,,,,,,,session,1153.4664543999825,180.0,2.0,72.0,0.021097429113765893,4,0.2906680000014603,0.5075217999983579,6,0.2697079998906702,0.47170250001363456,1,0.5190425000619143,0.7686767000705004,,,66.0,63.0,27942,60.0,
77,-77,90,3,11,59,11,,,materials/instructions\12_break.png,1162.419947199989,1165.357263599988,0,2.7852737999055535,2.935296199982986,0.02304670005105436,2.9430587000679225,,,,,,,,,,,,,,,,,,,,27942,60.0,
-77,77,45,3,12,60,6,,,,,,,,,,,session,1165.3735193000175,174.0,2.0,72.0,0.021097429113765893,2,0.43382480018772185,0.6675405001733452,7,0.6250988999381661,0.8258360999170691,1,0.6159373000264168,0.812057500006631,,,57.0,48.0,27942,60.0,
-77,-77,45,3,13,61,14,,,,,,,,,,,session,1173.76437050011,156.0,2.0,72.0,0.4,3,0.01142310001887381,0.12911770003847778,7,0.9204122999217361,1.099049599841237,6,1.3485149999614805,1.4623442001175135,,,60.0,54.0,27942,60.0,
-77,-77,-45,3,14,62,12,,,,,,,,,,,session,1182.4430498001166,174.0,2.0,72.0,0.021097429113765893,3,0.8326203001197428,1.0814105002209544,7,0.28569109993986785,0.4526084999088198,0,0.01122760004363954,0.2354635999072343,,,60.0,57.0,27942,60.0,
-77,77,90,3,15,63,7,,,,,,,,,,,session,1190.526764899958,144.0,2.0,72.0,0.021097429113765893,5,0.7144417001400143,0.9312356000300497,6,0.7074318998493254,0.8749229998793453,0,1.586648300057277,1.8534977999515831,,,63.0,57.0,27942,60.0,
77,-77,45,4,0,64,10,,,,,,,,,,,session,1200.0347178000957,132.0,2.0,72.0,0.021097429113765893,4,0.36164609994739294,0.528864299878478,7,0.5883581999223679,0.838327799923718,1,0.011176400119438767,0.2676223001908511,,,57.0,63.0,27942,60.0,
77,-77,90,4,1,65,11,,,,,,,,,,,session,1207.9111031000502,162.0,2.0,72.0,0.021097429113765893,5,0.7503148999530822,0.9843009999021888,6,0.3561780999880284,0.5564102998469025,0,0.6715559000149369,0.9727175999432802,,,60.0,48.0,27942,60.0,
77,77,0,4,2,66,1,,,,,,,,,,,session,1216.3655838000122,126.0,2.0,72.0,0.021097429113765893,5,0.36785009992308915,0.5701238999608904,0,0.012853799853473902,0.11398310004733503,1,0.30841799988411367,0.5305985999293625,,,63.0,51.0,27942,60.0,
-77,77,-45,4,3,67,4,,,,,,,,,,,session,1223.0116706001572,126.0,2.0,72.0,0.021097429113765893,2,0.4115017999429256,0.6785607000347227,7,1.3220596997998655,1.5243400000035763,1,0.031422599917277694,0.2655172999948263,,,63.0,72.0,27942,60.0,
77,77,-45,4,4,68,0,,,,,,,,,,,session,1231.6752381999977,162.0,2.0,72.0,0.4,5,0.011060799937695265,0.1518186000175774,1,0.7412288000341505,0.9748145998455584,6,0.6827273000963032,0.8317983001470566,,,60.0,51.0,27942,60.0,
-77,77,0,4,5,69,5,,,,,,,,,,,session,1239.6337454000022,174.0,2.0,72.0,0.4,2,0.433377199806273,0.7421375999692827,0,0.27072329982183874,0.5356067998800427,7,0.011589699890464544,0.1642190997954458,,,48.0,63.0,27942,60.0,
-77,77,45,4,6,70,6,,,,,,,,,,,session,1247.2758357999846,126.0,2.0,72.0,0.021097429113765893,5,0.99771359981969,1.297372399829328,6,0.0349051000084728,0.25527320010587573,0,0.02941560000181198,0.3143672998994589,,,66.0,66.0,27942,60.0,
-77,77,90,4,7,71,7,,,,,,,,,,,session,1254.9258610000834,138.0,2.0,72.0,0.021097429113765893,3,0.8230425999499857,1.0399157998617738,1,0.011551700066775084,0.10165499988943338,0,0.22001469996757805,0.5174003001302481,,,72.0,51.0,27942,60.0,
77,77,90,4,8,72,3,,,,,,,,,,,session,1262.3805440999568,126.0,2.0,72.0,0.021097429113765893,5,0.8226167999673635,1.0004998999647796,6,0.38257379992865026,0.5538457999937236,0,0.6532411000225693,0.8177136001177132,,,54.0,60.0,27942,60.0,
77,-77,0,4,9,73,9,,,,,,,,,,,session,1270.3466068999842,138.0,2.0,72.0,0.021097429113765893,4,0.35378500004298985,0.4864581001456827,0,0.3676318998914212,0.5510137998498976,1,1.2545803999528289,1.4042299999855459,,,69.0,51.0,27942,60.0,
-77,-77,-45,4,10,74,12,,,,,,,,,,,session,1278.5453648001421,168.0,2.0,72.0,0.021097429113765893,5,0.8534562001004815,1.054451100062579,7,0.3252701999153942,0.47551269992254674,0,0.3520572001580149,0.5342171001248062,,,51.0,54.0,27942,60.0,
77,77,45,4,11,75,2,,,,,,,,,,,session,1286.6017221000511,150.0,2.0,72.0,0.021097429113765893,5,0.1882545999251306,0.38831469998694956,7,0.5218084999360144,0.7364983998704702,1,0.011917300056666136,0.0497359000146389,,,69.0,72.0,27942,60.0,
-77,-77,90,4,12,76,15,,,,,,,,,,,session,1294.708018900128,162.0,2.0,72.0,0.021097429113765893,3,1.0675824999343604,1.2679319998715073,6,2.173858300084248,2.323850099928677,0,0.5730755000840873,0.7733325001318008,,,63.0,63.0,27942,60.0,
-77,-77,0,4,13,77,13,,,,,,,,,,,session,1305.3326155999675,180.0,2.0,72.0,0.021097429113765893,3,0.4348531998693943,0.6695339998695999,0,0.26199340005405247,0.4788710998836905,1,0.21437809988856316,0.39671769994311035,,,72.0,57.0,27942,60.0,
77,-77,-45,4,14,78,8,,,,,,,,,,,session,1313.4941053001676,126.0,2.0,72.0,0.021097429113765893,4,0.30289770010858774,0.5019992999732494,1,0.6294525000266731,0.813043899834156,1,0.872765300096944,1.0725110000930727,,,66.0,48.0,27942,60.0,
-77,-77,45,4,15,79,14,,,,,,,,,,,session,1321.3116453001276,180.0,2.0,72.0,0.021097429113765893,3,0.5229265000671148,0.7564662001095712,7,0.8728751998860389,1.105397199979052,1,0.29348970018327236,0.47854780009947717,,,54.0,57.0,27942,60.0,
-77,-77,45,4,15,79,14,,,materials/instructions\12_break.png,1329.9686156001408,1347.2104342000093,0,17.074106000130996,17.23989550000988,0.01645889994688332,17.24767110007815,,,,,,,,,,,,,,,,,,,,27942,60.0,
77,-77,-45,5,0,80,8,,,,,,,,,,,session,1347.2260799000505,132.0,2.0,72.0,0.021097429113765893,4,0.22768539981916547,0.3787636999040842,1,0.45461590006016195,0.703672899864614,1,0.2245047001633793,0.4248180000577122,,,48.0,48.0,27942,60.0,
-77,-77,-45,5,1,81,12,,,,,,,,,,,session,1353.984920799965,174.0,2.0,72.0,0.021097429113765893,3,0.35403999988920987,0.5985923998523504,1,0.9384568999521434,1.1385026001371443,1,0.010995999909937382,0.012870399979874492,,,54.0,69.0,27942,60.0,
77,77,45,5,2,82,2,,,,,,,,,,,session,1362.7719869001303,132.0,2.0,72.0,0.021097429113765893,5,0.01199029991403222,0.1860231999307871,7,0.5874938000924885,0.7542854999192059,1,0.010960099985823035,0.13557719998061657,,,60.0,63.0,27942,60.0,
-77,-77,90,5,3,83,15,,,,,,,,,,,session,1369.5480977999978,144.0,2.0,72.0,0.021097429113765893,3,0.30473029986023903,0.5530482998583466,6,0.01148059987463057,0.19043539999984205,1,0.01126719987951219,0.06936579989269376,,,51.0,63.0,27942,60.0,
-77,77,-45,5,4,84,4,,,,,,,,,,,session,1376.100159500027,126.0,2.0,72.0,0.021097429113765893,2,0.0645665000192821,0.3342319999355823,1,0.5035942001268268,0.7013861001469195,1,0.06876339996233582,0.305647199973464,,,66.0,66.0,27942,60.0,
-77,77,0,5,5,85,5,,,,,,,,,,,session,1383.7971249001566,156.0,2.0,72.0,0.021097429113765893,2,0.3518620999529958,0.6854471999686211,0,0.011468400014564395,0.2702324001584202,1,0.011083999881520867,0.012950100004673004,,,57.0,72.0,27942,60.0,
77,-77,45,5,6,86,10,,,,,,,,,,,session,1390.978001800133,138.0,2.0,72.0,0.021097429113765893,4,0.48379960004240274,0.6505768001079559,0,3.2478882998693734,3.4928512999322265,1,0.010957800084725022,0.01282029994763434,,,72.0,66.0,27942,60.0,
-77,-77,0,5,7,87,13,,,,,,,,,,,session,1401.2078234001528,162.0,2.0,72.0,0.021097429113765893,3,0.23100210004486144,0.4824300000909716,0,0.012925899820402265,0.2977291999850422,1,1.6529141999781132,1.9032576999161392,,,51.0,48.0,27942,60.0,
77,77,-45,5,8,88,0,,,,,,,,,,,session,1409.7113697000314,156.0,2.0,72.0,0.4,5,0.2588392999023199,0.4755013999529183,1,0.8405484999530017,1.0570205000694841,7,0.20236180000938475,0.4044078001752496,,,63.0,66.0,27942,60.0,
77,77,90,5,9,89,3,,,,,,,,,,,session,1417.852107899962,138.0,2.0,72.0,0.4,5,0.30891619995236397,0.480999399907887,6,0.06332710012793541,0.2616924000903964,7,0.24825909989885986,0.4514158999081701,,,66.0,63.0,27942,60.0,
-77,-77,45,5,10,90,14,,,,,,,,,,,session,1425.0474272000138,168.0,2.0,72.0,0.4,3,0.2800857999827713,0.5121931000612676,7,0.5933966999873519,0.7770372999366373,7,0.41709240013733506,0.568348600063473,,,63.0,48.0,27942,60.0,
77,-77,90,5,11,91,11,,,,,,,,,,,session,1433.0129472999834,156.0,2.0,72.0,0.021097429113765893,4,0.4381952998228371,0.6050360999070108,6,0.5875684001948684,0.771071600029245,1,0.012060200097039342,0.044688900001347065,,,51.0,72.0,27942,60.0,
-77,77,90,5,12,92,7,,,,,,,,,,,session,1440.5500253001228,180.0,2.0,72.0,0.021097429113765893,2,0.52717119990848,0.744377400027588,6,0.01151980017311871,0.01346070016734302,1,0.24843669985421002,0.4817939999047667,,,66.0,51.0,27942,60.0,
77,-77,0,5,13,93,9,,,,,,,,,,,session,1448.7763887001202,126.0,2.0,72.0,0.021097429113765893,4,0.1378500999417156,0.3212472000159323,0,0.011659499956294894,0.2141519000288099,1,0.011792699806392193,0.18649939983151853,,,51.0,66.0,27942,60.0,
77,77,0,5,14,94,1,,,,,,,,,,,session,1454.9790024000686,180.0,2.0,72.0,0.021097429113765893,5,0.8673208998516202,1.1011461999733,7,0.30684090009890497,0.48946389998309314,0,0.37122320011258125,0.5872571999207139,,,72.0,72.0,27942,60.0,
-77,77,45,5,15,95,6,,,,,,,,,,,session,1464.0032027000561,150.0,2.0,72.0,0.4,2,0.24749770015478134,0.5277652000077069,7,0.9540252001024783,1.1369070000946522,1,1.1345087999943644,1.400651500094682,,,69.0,72.0,27942,60.0,
77,-77,-45,6,0,96,8,,,,,,,,,,,session,1473.9802888999693,138.0,2.0,72.0,0.4,4,0.41383370012044907,0.5806303999852389,1,0.6704959000926465,0.9062240000348538,1,0.5687477998435497,0.8180980999022722,,,72.0,51.0,27942,60.0,
-77,-77,90,6,1,97,15,,,,,,,,,,,session,1482.0830427000765,180.0,2.0,72.0,0.021097429113765893,3,0.38555319979786873,0.602605199906975,6,0.8284560998436064,1.0047855998855084,1,1.077603799989447,1.2632222000975162,,,48.0,69.0,27942,60.0,
-77,77,0,6,2,98,5,,,,,,,,,,,session,1491.3778635000344,168.0,2.0,72.0,0.021097429113765893,2,0.4219774000812322,0.6066418001428246,0,2.8881979000288993,3.055335500044748,1,1.2021866000723094,1.3863280001096427,,,72.0,63.0,27942,60.0,
77,77,-45,6,3,99,0,,,,,,,,,,,session,1502.917106400011,138.0,2.0,72.0,0.021097429113765893,5,0.20048960018903017,0.4016684000380337,1,1.1569902999326587,1.3897913999389857,1,0.7742937998846173,0.9276196998544037,,,51.0,48.0,27942,60.0,
77,77,-45,6,3,99,0,,,materials/instructions\12_break.png,1511.0747175000142,1534.2220429000445,0,22.94520079996437,23.145324500044808,0.02185799996368587,23.157130799954757,,,,,,,,,,,,,,,,,,,,27942,60.0,
-77,-77,45,6,4,100,14,,,,,,,,,,,session,1534.2423952000681,144.0,2.0,72.0,0.4,3,0.8799916999414563,1.0811407999135554,7,0.8395944000221789,1.038415600080043,1,0.011198800057172775,0.013065399834886193,,,60.0,66.0,27942,60.0,
77,77,90,6,5,101,3,,,,,,,,,,,session,1542.3236784001347,138.0,2.0,72.0,0.021097429113765893,5,0.3362751000095159,0.6209187000058591,6,0.011633599875494838,0.013601999962702394,1,1.4712922000326216,1.7224457999691367,,,48.0,63.0,27942,60.0,
77,77,45,6,6,102,2,,,,,,,,,,,session,1550.287075900007,156.0,2.0,72.0,0.021097429113765893,5,0.5621843999251723,0.7762349001131952,0,0.09710020013153553,0.3120584001298994,0,0.010974599979817867,0.13273780001327395,,,48.0,51.0,27942,60.0,
77,-77,0,6,7,103,9,,,,,,,,,,,session,1557.476995300036,132.0,2.0,72.0,0.021097429113765893,5,1.7531711999326944,1.935912000015378,6,0.011645900085568428,0.013537600170820951,0,0.3187984998803586,0.5356751999352127,,,69.0,51.0,27942,60.0,
-77,77,90,6,8,104,7,,,,,,,,,,,session,1565.6150589999743,126.0,2.0,72.0,0.021097429113765893,2,0.3212389999534935,0.5713528001215309,6,0.011418499983847141,0.20775069994851947,1,0.21146539994515479,0.42823640001006424,,,72.0,48.0,27942,60.0,
77,-77,90,6,9,105,11,,,,,,,,,,,session,1572.3535647001117,126.0,2.0,72.0,0.021097429113765893,4,0.5102437001187354,0.6904488001018763,7,0.011368600185960531,0.013284699991345406,0,0.6631216001696885,0.9000258001033217,,,66.0,51.0,27942,60.0,
-77,-77,0,6,10,106,13,,,,,,,,,,,session,1579.5487379000988,144.0,2.0,72.0,0.021097429113765893,5,3.4127162999939173,3.5976605999749154,6,0.01158759999088943,0.01348430011421442,0,0.3742070000153035,0.5741659998893738,,,60.0,63.0,27942,60.0,
77,77,0,6,11,107,1,,,,,,,,,,,session,1589.647703900002,150.0,2.0,72.0,0.021097429113765893,5,0.3337238999083638,0.5666292000096291,0,0.055688299937173724,0.39024599990807474,1,0.04465699987486005,0.2786447999533266,,,54.0,60.0,27942,60.0,
-77,77,45,6,12,108,6,,,,,,,,,,,session,1596.7364889001474,180.0,2.0,72.0,0.021097429113765893,2,0.3007248998619616,0.5983368000015616,7,0.9012968000024557,1.101465100189671,0,0.5328472999390215,0.8658547999802977,,,66.0,51.0,27942,60.0,
77,-77,45,6,13,109,10,,,,,,,,,,,session,1606.331014299998,138.0,2.0,72.0,0.021097429113765893,4,1.2020229001063854,1.336074500111863,7,0.6161942998878658,0.7660228998865932,0,0.5689218998886645,0.7691118000075221,,,66.0,51.0,27942,60.0,
-77,-77,-45,6,14,110,12,,,,,,,,,,,session,1614.9022733001038,174.0,2.0,72.0,0.021097429113765893,3,0.32084900001063943,0.5542861002031714,1,1.0852796998806298,1.2853217998053879,1,0.17867229995317757,0.4322424998972565,,,66.0,51.0,27942,60.0,
-77,77,-45,6,15,111,4,,,,,,,,,,,session,1623.4829659999814,150.0,2.0,72.0,0.021097429113765893,2,0.3116208000574261,0.5774714001454413,1,0.8382163001224399,1.0553507001604885,1,1.1551475001033396,1.369820399908349,,,48.0,51.0,27942,60.0,
77,-77,0,7,0,112,9,,,,,,,,,,,session,1632.0988070000894,162.0,2.0,72.0,0.4,4,0.40293120010755956,0.5861823000013828,0,0.01139350002631545,0.03803630010224879,6,0.010934100020676851,0.012815300142392516,,,72.0,63.0,27942,60.0,
-77,77,-45,7,1,113,4,,,,,,,,,,,session,1639.1312031000853,150.0,2.0,72.0,0.4,2,0.011863799998536706,0.09480440011247993,1,2.250874600140378,2.4510071000549942,6,0.01106190006248653,0.012986200163140893,,,69.0,72.0,27942,60.0,
-77,77,0,7,2,114,5,,,,,,,,,,,session,1648.3187540001236,132.0,2.0,72.0,0.021097429113765893,5,0.7665434000082314,1.0179616999812424,7,0.030789499869570136,0.24836719990707934,0,0.5858767000027001,0.8532165000215173,,,54.0,66.0,27942,60.0,
-77,-77,0,7,3,115,13,,,,,,,,,,,session,1656.1005065999925,138.0,2.0,72.0,0.021097429113765893,3,0.2865020001772791,0.5167305001523346,0,0.3066976999398321,0.5092925999779254,1,0.23709129984490573,0.43811240000650287,,,72.0,54.0,27942,60.0,
-77,-77,45,7,4,116,14,,,,,,,,,,,session,1663.4066455001011,138.0,2.0,72.0,0.021097429113765893,3,0.5116302000824362,0.7283743000589311,7,1.0138578000478446,1.180091599933803,1,0.17564139980822802,0.4257443998940289,,,72.0,66.0,27942,60.0,
77,77,45,7,5,117,2,,,,,,,,,,,session,1672.4159870999865,144.0,2.0,72.0,0.021097429113765893,5,0.18148129992187023,0.38159569981507957,7,0.8185121999122202,1.0003408000338823,1,0.6845569999422878,0.8856111997738481,,,60.0,60.0,27942,60.0,
-77,-77,-45,7,6,118,12,,,,,,,,,,,session,1680.5188226001337,174.0,2.0,72.0,0.021097429113765893,3,0.8113818999845535,1.043095099972561,1,0.6062597001437098,0.7965101001318544,1,0.011492999969050288,0.25143279996700585,,,48.0,66.0,27942,60.0,
77,-77,-45,7,7,119,8,,,,,,,,,,,session,1688.8514050000813,174.0,2.0,72.0,0.4,4,0.351443599909544,0.5195599000435323,1,0.5886784000322223,0.788832499878481,6,0.6338132999371737,0.7840012998785824,,,48.0,54.0,27942,60.0,
77,-77,-45,7,7,119,8,,,materials/instructions\12_break.png,1697.0084230999928,1728.852559400024,0,31.641852699918672,31.842023799894378,0.02308629988692701,31.849695099983364,,,,,,,,,,,,,,,,,,,,27942,60.0,
-77,77,45,7,8,120,6,,,,,,,,,,,session,1728.8681020999793,126.0,2.0,72.0,0.021097429113765893,2,0.3838636998552829,0.6336985998786986,7,0.6078610999975353,0.8074010000564158,1,6.929451500065625,7.112826300086454,,,63.0,60.0,27942,60.0,
77,77,0,7,9,121,1,,,,,,,,,,,session,1743.6008216999471,168.0,2.0,72.0,0.021097429113765893,5,0.30180129990912974,0.46666710008867085,0,0.011664999881759286,0.01359230000525713,1,0.011016399832442403,0.09924179990775883,,,66.0,66.0,27942,60.0,
77,77,90,7,10,122,3,,,,,,,,,,,session,1750.6198869000655,168.0,2.0,72.0,0.4,5,0.036703400081023574,0.03860020008869469,6,0.013848799979314208,0.2087380001321435,7,0.267493300139904,0.4160007999744266,,,66.0,69.0,27942,60.0,
-77,-77,90,7,11,123,15,,,,,,,,,,,session,1758.3964259000495,150.0,2.0,72.0,0.021097429113765893,4,0.59711780003272,0.7476339999120682,6,0.011733799939975142,0.038004899863153696,0,0.011201299959793687,0.013112999964505434,,,63.0,69.0,27942,60.0,
77,-77,90,7,12,124,11,,,,,,,,,,,session,1765.3612705999985,168.0,2.0,72.0,0.021097429113765893,4,0.2038630999159068,0.3873542998917401,6,0.011473200051113963,0.013373199850320816,1,0.6701886001974344,0.011063500074669719,,,48.0,66.0,27942,60.0,
77,-77,45,7,13,125,10,,,,,,,,,,,session,1772.5923131001182,174.0,2.0,72.0,0.4,4,0.026779599953442812,0.02863899990916252,7,0.6356931000482291,0.835674200206995,6,0.7500203000381589,0.8993281999137253,,,54.0,66.0,27942,60.0,
77,77,-45,7,14,126,0,,,,,,,,,,,session,1781.2974549999926,174.0,2.0,72.0,0.021097429113765893,3,1.1675312998704612,1.4677736999001354,6,0.0114869000390172,0.12378879985772073,0,0.9397034000139683,1.1418983000330627,,,63.0,51.0,27942,60.0,
-77,77,90,7,15,127,7,,,,,,,,,,,session,1790.2869822999928,144.0,2.0,72.0,0.021097429113765893,2,1.2714692000299692,1.48830630001612,1,0.011624200036749244,0.18815830000676215,0,0.07590969977900386,0.39056619978509843,,,72.0,51.0,27942,60.0,
77,77,0,8,0,128,1,,,,,,,,,,,session,1798.2622992000543,168.0,2.0,72.0,0.4,5,0.011130200000479817,0.21976040001027286,0,0.011558900121599436,0.013502700021490455,6,0.011323299957439303,0.11543290014378726,,,69.0,51.0,27942,60.0,
-77,-77,-45,8,1,129,12,,,,,,,,,,,session,1805.0810877000913,138.0,2.0,72.0,0.021097429113765893,3,0.2193146999925375,0.46951469988562167,1,3.426693700021133,3.6249647999648005,1,0.01096359989605844,0.037266300059854984,,,66.0,60.0,27942,60.0,
77,77,90,8,2,130,3,,,,,,,,,,,session,1815.0515689000022,174.0,2.0,72.0,0.021097429113765893,5,0.2368582000490278,0.4423680000472814,6,0.011514399899169803,0.013402400072664022,1,0.011942399898543954,0.013829199830070138,,,60.0,63.0,27942,60.0,
77,-77,90,8,3,131,11,,,,,,,,,,,session,1822.0280510999728,144.0,2.0,72.0,0.021097429113765893,4,0.011131000006571412,0.11775729991495609,6,0.01140700001269579,0.013297799974679947,1,0.011952999979257584,0.014107999857515097,,,60.0,60.0,27942,60.0,
-77,77,-45,8,4,132,4,,,,,,,,,,,session,1828.0284716000315,144.0,2.0,72.0,0.021097429113765893,5,0.6078411999624223,0.7901016999967396,7,0.46730700018815696,0.6516963001340628,0,0.011195699917152524,0.23498949990607798,,,48.0,69.0,27942,60.0,
77,-77,45,8,5,133,10,,,,,,,,,,,session,1835.5026773000136,174.0,2.0,72.0,0.021097429113765893,3,0.7662681001238525,1.0174700000789016,1,0.0800046999938786,0.4163627000525594,0,0.11777429981157184,0.5161653999239206,,,63.0,51.0,27942,60.0,
-77,-77,90,8,6,134,15,,,,,,,,,,,session,1843.7156768999994,126.0,2.0,72.0,0.021097429113765893,3,0.6010866998694837,0.8015294999349862,6,0.04405180015601218,0.28054070007056,0,0.030121899908408523,0.3163191999774426,,,48.0,48.0,27942,60.0,
77,-77,0,8,7,135,9,,,,,,,,,,,session,1850.2674547999632,168.0,2.0,72.0,0.021097429113765893,4,0.3545166999101639,0.5213784000370651,0,2.3272470000665635,2.542286700103432,0,0.011411800049245358,0.013319300021976233,,,48.0,72.0,27942,60.0,
-77,-77,45,8,8,136,14,,,,,,,,,,,session,1859.5816411999986,180.0,2.0,72.0,0.021097429113765893,3,0.011217299848794937,0.049382400000467896,7,0.4526468999683857,0.652616900159046,1,0.011206700000911951,0.18665240006521344,,,54.0,66.0,27942,60.0,
77,77,-45,8,9,137,0,,,,,,,,,,,session,1867.2336618001573,156.0,2.0,72.0,0.021097429113765893,4,0.8953788999933749,1.0631164000369608,6,0.011686799814924598,0.11940660001710057,0,0.15254210005514324,0.4341961001046002,,,72.0,63.0,27942,60.0,
-77,77,90,8,10,138,7,,,,,,,,,,,session,1875.1658010999672,180.0,2.0,72.0,0.4,2,0.39004490012302995,0.6900462000630796,6,0.011388899991288781,0.013268300099298358,6,0.01092860009521246,0.01284270011819899,,,69.0,51.0,27942,60.0,
-77,-77,0,8,11,139,13,,,,,,,,,,,session,1882.3340801999439,174.0,2.0,72.0,0.021097429113765893,3,0.036697099916636944,0.29512390005402267,0,0.011854299809783697,0.1089389999397099,1,0.011046000057831407,0.012940200045704842,,,48.0,72.0,27942,60.0,
-77,-77,0,8,11,139,13,,,materials/instructions\12_break.png,1889.657899199985,1902.885792300105,0,13.007829299895093,13.225593799958006,0.020922699943184853,13.23285000002943,,,,,,,,,,,,,,,,,,,,27942,60.0,
77,77,45,8,12,140,2,,,,,,,,,,,session,1902.9007057000417,180.0,2.0,72.0,0.021097429113765893,5,0.3556323000229895,0.5455255000852048,7,0.7348377997986972,0.9144724998623133,1,1.2177285999059677,1.4155196999199688,,,57.0,60.0,27942,60.0,
77,-77,-45,8,13,141,8,,,,,,,,,,,session,1912.2658635999542,132.0,2.0,72.0,0.4,4,0.45263219997286797,0.6178089999593794,1,0.5999561999924481,0.7985974999610335,1,2.099278099834919,2.9832309000194073,,,57.0,63.0,27942,60.0,
-77,77,45,8,14,142,6,,,,,,,,,,,session,1922.3351861000992,150.0,2.0,72.0,0.021097429113765893,3,0.8964120000600815,1.1778434000443667,7,0.0894011000636965,0.32165560009889305,0,1.0262645999900997,1.2690907998476177,,,54.0,72.0,27942,60.0,
-77,77,0,8,15,143,5,,,,,,,,,,,session,1931.1627001999877,180.0,2.0,72.0,0.021097429113765893,2,0.3310171999037266,0.5811604000627995,0,0.011711600003764033,0.01355840009637177,1,0.011115600122138858,0.134561600163579,,,66.0,51.0,27942,60.0,
77,-77,0,9,0,144,9,,,,,,,,,,,session,1938.3990887999535,144.0,2.0,72.0,0.021097429113765893,4,0.29729770007543266,0.4974277999717742,0,0.01153280003927648,0.19397929986007512,1,0.010930399876087904,0.1161243999376893,,,60.0,60.0,27942,60.0,
77,-77,-45,9,1,145,8,,,,,,,,,,,session,1945.054934100015,150.0,2.0,72.0,0.021097429113765893,4,0.23382359999231994,0.4004863000009209,1,0.36930410005152225,0.5870749999303371,1,0.1622697999700904,0.3811618001200259,,,54.0,57.0,27942,60.0,
-77,77,45,9,2,146,6,,,,,,,,,,,session,1952.2369695000816,180.0,2.0,72.0,0.021097429113765893,2,0.033545499900355935,0.33506169985048473,7,0.5177535000257194,0.7335793001111597,1,0.010972600197419524,0.11630040011368692,,,72.0,72.0,27942,60.0,
77,77,45,9,3,147,2,,,,,,,,,,,session,1960.7160769000184,156.0,2.0,72.0,0.021097429113765893,5,0.766966599971056,0.9679869001265615,6,0.33770729997195303,0.5212148001883179,0,1.5062002998311073,1.7729982000309974,,,57.0,63.0,27942,60.0,
77,-77,90,9,4,148,11,,,,,,,,,,,session,1970.0230885001365,162.0,2.0,72.0,0.021097429113765893,2,0.6280458001419902,0.8282671999186277,1,0.6970879998989403,0.9179236998315901,0,0.6148000999819487,0.8818606999702752,,,51.0,66.0,27942,60.0,
-77,-77,-45,9,5,149,12,,,,,,,,,,,session,1978.9991528999526,144.0,2.0,72.0,0.021097429113765893,5,0.417737599927932,0.6868092999793589,6,0.2693235999904573,0.46992950001731515,0,0.3687124999705702,0.5689062001183629,,,63.0,66.0,27942,60.0,
-77,-77,90,9,6,150,15,,,,,,,,,,,session,1986.7181665999815,132.0,2.0,72.0,0.4,3,0.4215308001730591,0.6717646000906825,6,0.05398349999450147,0.30664960015565157,7,0.05984509992413223,0.2607652998995036,,,54.0,51.0,27942,60.0,
-77,77,0,9,7,151,5,,,,,,,,,,,session,1993.3393196000252,132.0,2.0,72.0,0.021097429113765893,2,0.5252764001488686,0.7254536999389529,0,0.011644799960777164,0.2065952999982983,6,0.08394609997048974,0.2674048999324441,,,57.0,69.0,27942,60.0,
-77,77,-45,9,8,152,4,,,,,,,,,,,session,2000.6980745000765,168.0,2.0,72.0,0.021097429113765893,2,0.26703150011599064,0.516988200135529,1,0.6864146001171321,0.8558988000731915,1,0.010994100011885166,0.45411320007406175,,,48.0,66.0,27942,60.0,
-77,77,90,9,9,153,7,,,,,,,,,,,session,2008.6725852000527,168.0,2.0,72.0,0.021097429113765893,2,0.011648199986666441,0.23752460000105202,6,0.012803100049495697,0.014723300002515316,1,0.011365299811586738,0.013289799913764,,,51.0,63.0,27942,60.0,
77,77,90,9,10,154,3,,,,,,,,,,,session,2015.0675888000987,162.0,2.0,72.0,0.021097429113765893,5,1.0672099001239985,1.2624246999621391,6,0.012710199924185872,0.014746699947863817,0,0.01110129989683628,0.20046849991194904,,,60.0,63.0,27942,60.0,
77,77,-45,9,11,155,0,,,,,,,,,,,session,2023.0495480000973,180.0,2.0,72.0,0.021097429113765893,2,1.1996190000791103,1.4497521000448614,7,0.012576899956911802,0.014473099960014224,0,0.3530095999594778,0.6193529998417944,,,72.0,69.0,27942,60.0,
77,-77,45,9,12,156,10,,,,,,,,,,,session,2031.9368690000847,162.0,2.0,72.0,0.4,4,0.30217639985494316,0.5021325999405235,7,0.405765000032261,0.6059795999899507,6,0.09635600005276501,0.30733729992061853,,,72.0,66.0,27942,60.0,
77,77,0,9,13,157,1,,,,,,,,,,,session,2039.796480000019,150.0,2.0,72.0,0.021097429113765893,5,0.377122700214386,0.5959462001919746,0,0.01147349993698299,0.013354199938476086,1,0.011872299946844578,0.13979839999228716,,,72.0,60.0,27942,60.0,
-77,-77,45,9,14,158,14,,,,,,,,,,,session,2047.2840170001145,162.0,2.0,72.0,0.021097429113765893,3,0.9479099998716265,1.1980552000459284,1,0.03478190000168979,0.3367566999513656,0,0.6697750000748783,0.8868460000958294,,,63.0,69.0,27942,60.0,
-77,-77,0,9,15,159,13,,,,,,,,,,,session,2056.057681699982,150.0,2.0,72.0,0.4,3,0.011057400144636631,0.012948299990966916,0,0.20199810015037656,0.48639829992316663,7,0.011572199873626232,0.2506712998729199,,,48.0,48.0,27942,60.0,
-77,-77,0,9,15,159,13,,,materials/instructions\12_break.png,2062.405700800009,2078.3365248001646,0,15.645230500027537,15.928830800112337,0.0216240999288857,15.936350499978289,,,,,,,,,,,,,,,,,,,,27942,60.0,
-77,77,45,10,0,160,6,,,,,,,,,,,session,2078.3523208000697,150.0,2.0,72.0,0.021097429113765893,2,1.0461758999153972,1.2799316998571157,6,0.01131039997562766,0.10798410000279546,0,0.714202200062573,0.9320927001535892,,,63.0,57.0,27942,60.0,
77,-77,0,10,1,161,9,,,,,,,,,,,session,2086.6536727000494,126.0,2.0,72.0,0.021097429113765893,4,0.23716170014813542,0.3889727001078427,0,0.011587500106543303,0.18390090018510818,1,0.01096659991890192,0.012841199990361929,,,54.0,72.0,27942,60.0,
77,77,45,10,2,162,2,,,,,,,,,,,session,2092.894043199951,162.0,2.0,72.0,0.4,5,0.3696780998725444,0.5865744999609888,7,0.48544700001366436,0.7189410999417305,6,1.1866733999922872,1.3554740000981838,,,57.0,72.0,27942,60.0,
77,-77,90,10,3,163,11,,,,,,,,,,,session,2101.859036100097,156.0,2.0,72.0,0.021097429113765893,4,0.0115147999022156,0.11976499995216727,6,0.43118469999171793,0.6029270999133587,1,1.3469332999084145,1.5691905999556184,,,57.0,63.0,27942,60.0,
-77,77,-45,10,4,164,4,,,,,,,,,,,session,2110.206740300171,156.0,2.0,72.0,0.4,2,0.27322679990902543,0.5231361000332981,1,2.076034300029278,2.2759543999563903,1,0.03474260005168617,0.28637999994680285,,,48.0,57.0,27942,60.0,
77,-77,-45,10,5,165,8,,,,,,,,,,,session,2119.068563000066,180.0,2.0,72.0,0.021097429113765893,5,0.6523296998348087,1.0021208999678493,1,0.13495960016734898,0.3870501001365483,0,0.21982649993151426,0.6041190999094397,,,51.0,51.0,27942,60.0,
77,77,0,10,6,166,1,,,,,,,,,,,session,2127.2088493001647,132.0,2.0,72.0,0.021097429113765893,4,1.1598982999566942,1.3099343001376837,7,0.011587899876758456,0.2535144998691976,0,0.01125880004838109,0.265774899860844,,,54.0,54.0,27942,60.0,
-77,77,0,10,7,167,5,,,,,,,,,,,session,2135.0502282001544,150.0,2.0,72.0,0.021097429113765893,2,0.4705311998259276,0.7026101998053491,0,0.24332000012509525,0.5268976001534611,1,1.5725406999699771,1.8562638000585139,,,51.0,48.0,27942,60.0,
77,77,-45,10,8,168,0,,,,,,,,,,,session,2143.7223261001054,174.0,2.0,72.0,0.021097429113765893,4,0.6292383999098092,0.6783386000897735,6,0.3308874999638647,0.49291759985499084,0,0.26030630012974143,0.5439903000369668,,,63.0,72.0,27942,60.0,
-77,-77,0,10,9,169,13,,,,,,,,,,,session,2152.0488275000826,126.0,2.0,72.0,0.4,3,0.05419429996982217,0.2722428999841213,0,0.011404799995943904,0.2849443999584764,6,0.048237500013783574,0.31689450005069375,,,51.0,48.0,27942,60.0,
77,-77,45,10,10,170,10,,,,,,,,,,,session,2158.269743300043,174.0,2.0,72.0,0.021097429113765893,4,0.1443713998887688,0.3583521998953074,7,0.38720430014654994,0.6040645001921803,1,0.011278200196102262,0.10125350020825863,,,69.0,72.0,27942,60.0,
-77,-77,45,10,11,171,14,,,,,,,,,,,session,2166.053694100119,168.0,2.0,72.0,0.021097429113765893,5,0.796832799911499,0.9803859000094235,6,0.01148979994468391,0.013400600058957934,0,0.6312537998892367,0.011093999957665801,,,72.0,72.0,27942,60.0,
-77,-77,90,10,12,172,15,,,,,,,,,,,session,2174.3567023000214,174.0,2.0,72.0,0.021097429113765893,2,1.0335152999032289,1.3003072999417782,1,0.06887179985642433,0.32024189992807806,0,0.010957699967548251,0.06301330006681383,,,48.0,57.0,27942,60.0,
-77,77,90,10,13,173,7,,,,,,,,,,,session,2182.2817542999983,168.0,2.0,72.0,0.021097429113765893,3,2.2495262001175433,2.4996249000541866,6,0.011698300018906593,0.01356509979814291,0,0.01102470001205802,0.012864700052887201,,,66.0,48.0,27942,60.0,
77,77,90,10,14,174,3,,,,,,,,,,,session,2190.969507700065,126.0,2.0,72.0,0.021097429113765893,5,0.6688080998137593,0.9134327999781817,7,0.01136819995008409,0.03954809997230768,0,0.010987899964675307,0.2999434000812471,,,60.0,51.0,27942,60.0,
-77,-77,-45,10,15,175,12,,,,,,,,,,,session,2197.686538200127,180.0,2.0,72.0,0.021097429113765893,4,1.7305791999679059,1.8805949001107365,6,0.6709478001575917,0.8710179999470711,0,0.011010000016540289,0.012894599931314588,,,63.0,63.0,27942,60.0,
-77,77,90,11,0,176,7,,,,,,,,,,,session,2207.0167146001477,162.0,2.0,72.0,0.021097429113765893,3,1.269178699934855,1.504386099986732,6,0.2651007000822574,0.4665186000056565,0,0.010950299911201,0.01284069987013936,,,63.0,69.0,27942,60.0,
77,-77,-45,11,1,177,8,,,,,,,,,,,session,2215.353662100155,126.0,2.0,72.0,0.4,4,0.29356270004063845,0.45946829998865724,1,0.5840557001065463,0.7514285000506788,6,0.2354425999801606,0.4187597001437098,,,60.0,54.0,27942,60.0,
77,-77,0,11,2,178,9,,,,,,,,,,,session,2223.083698899951,162.0,2.0,72.0,0.021097429113765893,4,0.33417909988202155,0.5009898999705911,0,0.5068089000415057,0.7570282001979649,1,0.20164550002664328,0.4018393000587821,,,63.0,48.0,27942,60.0,
-77,77,0,11,3,179,5,,,,,,,,,,,session,2230.740978700109,174.0,2.0,72.0,0.021097429113765893,5,2.239571100100875,2.3887145000044256,6,0.011921600205823779,0.013873000163584948,0,0.011201699962839484,0.013056199997663498,,,63.0,57.0,27942,60.0,
-77,77,0,11,3,179,5,,,materials/instructions\12_break.png,2239.536624000175,2273.3350961001124,0,33.64606329984963,33.7959952999372,0.016236199997365475,33.80290040001273,,,,,,,,,,,,,,,,,,,,27942,60.0,
77,77,-45,11,4,180,0,,,,,,,,,,,session,2273.349099500105,168.0,2.0,72.0,0.021097429113765893,5,0.26209540013223886,0.44570080004632473,1,0.5389215999748558,0.7569663999602199,1,0.011033100076019764,0.012948499992489815,,,48.0,54.0,27942,60.0,
77,77,45,11,5,181,2,,,,,,,,,,,session,2280.5178470001556,174.0,2.0,72.0,0.021097429113765893,5,0.011071400018408895,0.01295659993775189,7,0.011333900038152933,0.013073300011456013,1,0.01102439989335835,0.21842759987339377,,,66.0,63.0,27942,60.0,
-77,77,-45,11,6,182,4,,,,,,,,,,,session,2287.884050599998,162.0,2.0,72.0,0.4,2,0.010993100004270673,0.012935000006109476,1,0.3482643999159336,0.4994381999131292,1,0.011024100007489324,0.19916959991678596,,,69.0,51.0,27942,60.0,
-77,-77,-45,11,7,183,12,,,,,,,,,,,session,2294.7524995000567,150.0,2.0,72.0,0.021097429113765893,5,1.440190500114113,1.640398200135678,6,0.06860239990055561,0.2208268998656422,0,0.18456050008535385,0.38494660006836057,,,72.0,54.0,27942,60.0,
77,77,90,11,8,184,3,,,,,,,,,,,session,2303.042921300046,150.0,2.0,72.0,0.021097429113765893,5,0.011259400052949786,0.15902599995024502,6,0.011500600026920438,0.013372999848797917,1,0.010968000162392855,0.013048400171101093,,,63.0,60.0,27942,60.0,
-77,-77,90,11,9,185,15,,,,,,,,,,,session,2310.050630999962,180.0,2.0,72.0,0.021097429113765893,4,0.7158927998971194,0.8994885999709368,1,0.011518300045281649,0.2370905999559909,0,0.15266359993256629,0.35452479985542595,,,57.0,57.0,27942,60.0,
-77,-77,0,11,10,186,13,,,,,,,,,,,session,2317.905288900016,144.0,2.0,72.0,0.021097429113765893,3,1.2757089999504387,1.5280039999634027,6,0.01194029999896884,0.013803899986669421,0,0.011889199959114194,0.013810199918225408,,,63.0,54.0,27942,60.0,
-77,77,45,11,11,187,6,,,,,,,,,,,session,2325.2555411001667,144.0,2.0,72.0,0.021097429113765893,5,1.0756554999388754,1.2596515999175608,7,0.14917290001176298,0.3698833000380546,0,0.22011230001226068,0.5041629998013377,,,48.0,48.0,27942,60.0,
-77,-77,45,11,12,188,14,,,,,,,,,,,session,2333.386213300051,126.0,2.0,72.0,0.021097429113765893,4,0.8034050001297146,0.9524878000374883,6,0.01199680007994175,0.013863100204616785,0,0.23697050008922815,0.5016572000458837,,,60.0,54.0,27942,60.0,
77,-77,90,11,13,189,11,,,,,,,,,,,session,2340.3220818000846,126.0,2.0,72.0,0.021097429113765893,5,0.7027373001910746,0.9687582000624388,6,0.011350400047376752,0.013216100167483091,0,0.011151200160384178,0.21564910002052784,,,63.0,51.0,27942,60.0,
77,77,0,11,14,190,1,,,,,,,,,,,session,2346.9784756000154,150.0,2.0,72.0,0.021097429113765893,5,0.011702399933710694,0.013582099927589297,0,0.011672999942675233,0.013582200044766068,1,0.010904900031164289,0.012791899964213371,,,51.0,63.0,27942,60.0,
77,-77,45,11,15,191,10,,,,,,,,,,,session,2353.416357900016,168.0,2.0,72.0,0.021097429113765893,4,0.583753400016576,0.7682570999022573,7,0.01253610011190176,0.014392700046300888,0,0.010943099856376648,0.012677100021392107,,,66.0,51.0,27942,60.0,
77,-77,0,12,0,192,9,,,,,,,,,,,session,2360.4146082000807,126.0,2.0,72.0,0.021097429113765893,4,2.059310699813068,2.2564642999786884,6,0.012141300132498145,0.014033999992534518,0,0.5680176999885589,0.7860467000864446,,,54.0,60.0,27942,60.0,
77,77,-45,12,1,193,0,,,,,,,,,,,session,2368.9107143001165,156.0,2.0,72.0,0.4,5,0.011560600018128753,0.013477399945259094,1,0.5086139999330044,0.7059913000557572,1,0.01110129989683628,0.06359610008075833,,,48.0,48.0,27942,60.0,
-77,77,45,12,2,194,6,,,,,,,,,,,session,2375.6843072001357,180.0,2.0,72.0,0.4,2,0.010892200050875545,0.012622999958693981,7,0.011731000151485205,0.08118590014055371,6,0.1797108999453485,0.37968929996713996,,,63.0,57.0,27942,60.0,
-77,-77,45,12,3,195,14,,,,,,,,,,,session,2382.6032889999915,156.0,2.0,72.0,0.4,3,0.011205400107428432,0.013141300063580275,7,0.36743720015510917,0.5687035999726504,6,0.011162899900227785,0.013025599997490644,,,72.0,51.0,27942,60.0,
-77,77,-45,12,4,196,4,,,,,,,,,,,session,2389.297197500011,126.0,2.0,72.0,0.021097429113765893,5,0.9449442001059651,1.1114791999571025,6,0.011481800116598606,0.013556899968534708,0,0.645952699938789,0.8163318999577314,,,66.0,63.0,27942,60.0,
77,-77,45,12,5,197,10,,,,,,,,,,,session,2396.9396129001398,126.0,2.0,72.0,0.021097429113765893,4,0.01122620003297925,0.01316120009869337,7,0.2804489000700414,0.46499740006402135,1,0.011046000057831407,0.11903730011545122,,,48.0,48.0,27942,60.0,
-77,77,90,12,6,198,7,,,,,,,,,,,session,2402.686594000086,168.0,2.0,72.0,0.021097429113765893,5,1.1304377999622375,1.3131772000342607,6,0.012595799984410405,0.014497200027108192,0,0.4503947999328375,0.6517239001113921,,,63.0,69.0,27942,60.0,
77,77,0,12,7,199,1,,,,,,,,,,,session,2411.127340900013,168.0,2.0,72.0,0.4,5,0.0110167998354882,0.012914499966427684,0,0.011459500063210726,0.01335990009829402,6,0.01126780011691153,0.013104999903589487,,,66.0,60.0,27942,60.0,
77,77,0,12,7,199,1,,,materials/instructions\12_break.png,2417.5368674001656,2425.617533300072,0,7.878386799944565,8.078561499947682,0.01766970008611679,8.086378399981186,,,,,,,,,,,,,,,,,,,,27942,60.0,
77,77,90,12,8,200,3,,,,,,,,,,,session,2425.633081899956,180.0,2.0,72.0,0.021097429113765893,5,0.011458100052550435,0.01343840011395514,1,0.6729820999316871,0.8730009000282735,1,0.354675899958238,0.5888032999355346,,,57.0,51.0,27942,60.0,
77,77,45,12,9,201,2,,,,,,,,,,,session,2433.3595801000483,132.0,2.0,72.0,0.4,5,0.010963500011712313,0.012869699858129025,7,0.5349636001046747,0.7337889999616891,6,0.26005779998376966,0.457877199864015,,,72.0,57.0,27942,60.0,
-77,-77,0,12,10,202,13,,,,,,,,,,,session,2440.3681656001136,156.0,2.0,72.0,0.021097429113765893,3,0.011032799957320094,0.012922000139951706,0,0.011500300141051412,0.013409400125965476,1,0.01095060002990067,0.012991999974474311,,,57.0,51.0,27942,60.0,
77,-77,-45,12,11,203,8,,,,,,,,,,,session,2446.265784600051,132.0,2.0,72.0,0.021097429113765893,4,0.6054967998061329,0.8054873999208212,6,0.012555000139400363,0.014484500046819448,0,0.4850423000752926,0.011152900056913495,,,69.0,72.0,27942,60.0,
-77,-77,-45,12,12,204,12,,,,,,,,,,,session,2453.5781111000106,126.0,2.0,72.0,0.021097429113765893,3,0.0363648000638932,0.17101599997840822,1,0.41886219987645745,0.635669499868527,1,0.5970062999986112,0.7994719999842346,,,54.0,57.0,27942,60.0,
77,-77,90,12,13,205,11,,,,,,,,,,,session,2460.591473000124,174.0,2.0,72.0,0.021097429113765893,4,0.01113549992442131,0.014741400023922324,6,0.011565000051632524,0.013469999888911843,1,0.011010000016540289,0.01292379992082715,,,51.0,72.0,27942,60.0,
-77,77,0,12,14,206,5,,,,,,,,,,,session,2467.436564099975,138.0,2.0,72.0,0.021097429113765893,2,0.04719309997744858,0.399477900005877,0,0.2700657001696527,0.5202219001948833,1,0.011111499974504113,0.013133199885487556,,,72.0,69.0,27942,60.0,
-77,-77,90,12,15,207,15,,,,,,,,,,,session,2474.467408900149,180.0,2.0,72.0,0.021097429113765893,3,0.37208470003679395,0.6046363001223654,6,0.012382799992337823,0.014281000010669231,1,0.564079700037837,0.7808148001786321,,,69.0,60.0,27942,60.0,
77,77,90,13,0,208,3,,,,,,,,,,,session,2482.5730793999974,144.0,2.0,72.0,0.021097429113765893,5,0.010917600011453032,0.07790120015852153,6,0.011517900042235851,0.013404000084847212,1,0.12456119991838932,0.35605359985493124,,,69.0,54.0,27942,60.0,
-77,-77,90,13,1,209,15,,,,,,,,,,,session,2489.3053562999703,132.0,2.0,72.0,0.4,3,0.06437880010344088,0.31699330010451376,6,0.012567199999466538,0.014447499997913837,7,1.0360331998672336,1.2040754000190645,,,72.0,60.0,27942,60.0,
77,-77,45,13,2,210,10,,,,,,,,,,,session,2496.691597700119,180.0,2.0,72.0,0.021097429113765893,3,0.5000555999577045,0.7353864999022335,1,0.7063177998643368,0.9566231998614967,0,0.07079689996317029,0.2582893001381308,,,51.0,48.0,27942,60.0,
77,-77,90,13,3,211,11,,,,,,,,,,,session,2504.7511462999973,180.0,2.0,72.0,0.021097429113765893,4,0.38237840007059276,0.5989540000446141,6,0.012670200085267425,0.01448920019902289,0,0.011155500076711178,0.013120600022375584,,,66.0,63.0,27942,60.0,
-77,77,90,13,4,212,7,,,,,,,,,,,session,2512.3466914000455,156.0,2.0,72.0,0.021097429113765893,2,0.011007899884134531,0.18214799999259412,6,0.012127699796110392,0.014010599814355373,1,0.5368086001835763,0.011780900182202458,,,57.0,60.0,27942,60.0,
77,-77,0,13,5,213,9,,,,,,,,,,,session,2519.092745900154,168.0,2.0,72.0,0.021097429113765893,5,0.7872248999774456,1.0217750000301749,7,0.011622000019997358,0.03572439984418452,0,0.010891200043261051,0.10918790008872747,,,69.0,57.0,27942,60.0,
77,77,0,13,6,214,1,,,,,,,,,,,session,2526.613666600082,168.0,2.0,72.0,0.021097429113765893,5,0.011258899932727218,0.03554340009577572,0,0.012113100150600076,0.014073200058192015,1,0.09544950001873076,0.31558259995654225,,,72.0,63.0,27942,60.0,
-77,77,0,13,7,215,5,,,,,,,,,,,session,2533.9250119000208,138.0,2.0,72.0,0.021097429113765893,2,0.2840291000902653,0.5497868000529706,0,0.011533899931237102,0.013402399839833379,1,0.010915199993178248,0.01293900003656745,,,63.0,69.0,27942,60.0,
-77,-77,45,13,8,216,14,,,,,,,,,,,session,2540.466018000152,168.0,2.0,72.0,0.021097429113765893,3,0.049529800191521645,0.33576620020903647,7,0.5016552000306547,0.7016008000355214,1,0.01144959987141192,0.21608699997887015,,,54.0,48.0,27942,60.0,
-77,-77,-45,13,9,217,12,,,,,,,,,,,session,2547.6807733001187,132.0,2.0,72.0,0.4,3,0.16265459987334907,0.4781098999083042,1,0.011649299878627062,0.1497140999417752,7,0.12798420013859868,0.3615546999499202,,,63.0,48.0,27942,60.0,
77,77,-45,13,10,218,0,,,,,,,,,,,session,2554.8199811000377,138.0,2.0,72.0,0.021097429113765893,5,0.011231699958443642,0.05073489993810654,1,0.10235699987970293,0.38643600000068545,1,0.04822760005481541,0.30083579989150167,,,48.0,57.0,27942,60.0,
-77,77,-45,13,11,219,4,,,,,,,,,,,session,2561.057190200081,150.0,2.0,72.0,0.021097429113765893,2,0.011193899903446436,0.013173299841582775,1,0.06757790013216436,0.286401400109753,1,0.011090700048953295,0.03378779999911785,,,48.0,54.0,27942,60.0,
-77,77,-45,13,11,219,4,,,materials/instructions\12_break.png,2567.059052300174,2626.0210963999853,0,58.759815600002185,58.959996400168166,0.019770999904721975,58.96777409990318,,,,,,,,,,,,,,,,,,,,27942,60.0,
77,-77,-45,13,12,220,8,,,,,,,,,,,session,2626.0372077000793,162.0,2.0,72.0,0.021097429113765893,4,0.010860199807211757,0.012831599917262793,1,0.6867768000811338,0.9202928999438882,1,0.8340518998447806,1.0506303999572992,,,63.0,51.0,27942,60.0,
77,77,45,13,13,221,2,,,,,,,,,,,session,2634.078451700043,156.0,2.0,72.0,0.4,5,0.35785849997773767,0.6284757000394166,7,0.3883509000297636,0.5700284000486135,6,0.01155799999833107,0.013468399876728654,,,66.0,63.0,27942,60.0,
-77,77,45,13,14,222,6,,,,,,,,,,,session,2641.982228399953,126.0,2.0,72.0,0.021097429113765893,5,0.7668099000584334,1.0170002998784184,0,0.28915240010246634,0.012537300121039152,0,0.6715506999753416,0.01097089983522892,,,66.0,66.0,27942,60.0,
-77,-77,0,13,15,223,13,,,,,,,,,,,session,2649.7297130001243,180.0,2.0,72.0,0.4,3,0.03191210003569722,0.03386680013500154,0,0.011675999965518713,0.013520500157028437,7,0.01090470002964139,0.012857099995017052,,,48.0,60.0,27942,60.0,
-77,-77,-45,14,0,224,12,,,,,,,,,,,session,2656.0599205000326,174.0,2.0,72.0,0.021097429113765893,3,0.011008000001311302,0.013157399836927652,1,0.31054740003310144,0.5278853001073003,1,0.011203200090676546,0.013065299950540066,,,54.0,54.0,27942,60.0,
-77,-77,90,14,1,225,15,,,,,,,,,,,session,2663.247992699966,150.0,2.0,72.0,0.021097429113765893,4,1.3169345001224428,1.5181789000052959,7,0.01150940009392798,0.013627600157633424,0,0.011098700109869242,0.013024200219660997,,,69.0,72.0,27942,60.0,
-77,77,0,14,2,226,5,,,,,,,,,,,session,2671.101594200125,138.0,2.0,72.0,0.021097429113765893,5,3.1398033001460135,3.2894974001683295,6,0.011656299931928515,0.013574599986895919,0,0.2538047998677939,0.5205804998986423,,,51.0,57.0,27942,60.0,
-77,77,45,14,3,227,6,,,,,,,,,,,session,2680.480795599986,180.0,2.0,72.0,0.021097429113765893,2,0.35170489992015064,0.5508179999887943,7,0.588274999987334,0.8219707000534981,1,0.6840426998678595,0.9007315000053495,,,48.0,51.0,27942,60.0,
77,77,90,14,4,228,3,,,,,,,,,,,session,2689.4052125001326,138.0,2.0,72.0,0.021097429113765893,5,0.012147699948400259,0.13821609993465245,6,0.011356200091540813,0.01325429999269545,1,0.011187200201675296,0.08449940010905266,,,60.0,66.0,27942,60.0,
77,-77,-45,14,5,229,8,,,,,,,,,,,session,2695.490343700163,168.0,2.0,72.0,0.021097429113765893,4,0.011654200032353401,0.24000440002419055,1,0.4199866000562906,0.6210187000688165,1,0.964372199960053,1.164386599790305,,,48.0,57.0,27942,60.0,
77,-77,45,14,6,230,10,,,,,,,,,,,session,2703.508373500081,162.0,2.0,72.0,0.4,4,0.3344910000450909,0.5156183000653982,7,0.33607499999925494,0.5525332998950034,6,0.10913229989819229,0.2940970999188721,,,60.0,51.0,27942,60.0,
-77,-77,0,14,7,231,13,,,,,,,,,,,session,2711.2604023001622,126.0,2.0,72.0,0.4,3,0.011057799914851785,0.31577159999869764,0,1.3165342998690903,1.5846990998834372,1,0.10368579998612404,0.30509899999015033,,,66.0,51.0,27942,60.0,
-77,-77,45,14,8,232,14,,,,,,,,,,,session,2718.961114499951,138.0,2.0,72.0,0.4,3,0.01122749992646277,0.01339410012587905,7,0.5046186000108719,0.7367575000971556,7,0.01115039992146194,0.10140939988195896,,,60.0,60.0,27942,60.0,
77,77,45,14,9,233,2,,,,,,,,,,,session,2725.571706800023,126.0,2.0,72.0,0.021097429113765893,5,0.31424989993683994,0.5148515000473708,7,0.6184451999142766,0.83592540002428,1,0.011041499907150865,0.01290319999679923,,,60.0,72.0,27942,60.0,
77,-77,0,14,10,234,9,,,,,,,,,,,session,2733.1676495999563,144.0,2.0,72.0,0.021097429113765893,4,0.7218507002107799,0.924937300151214,6,1.3224947999697179,1.5233656999189407,0,0.011056199902668595,0.13801059988327324,,,63.0,69.0,27942,60.0,
77,-77,90,14,11,235,11,,,,,,,,,,,session,2741.794175000163,138.0,2.0,72.0,0.021097429113765893,4,0.011216099839657545,0.013064299942925572,6,0.01166930003091693,0.013579800026491284,1,0.011673599947243929,0.013608899898827076,,,63.0,60.0,27942,60.0,
77,77,-45,14,12,236,0,,,,,,,,,,,session,2747.657630600035,174.0,2.0,72.0,0.4,5,0.06394889997318387,0.26421230006963015,1,0.3311288000550121,0.5475049999076873,6,0.01123090018518269,0.013061400037258863,,,69.0,72.0,27942,60.0,
77,77,0,14,13,237,1,,,,,,,,,,,session,2755.6019020001404,168.0,2.0,72.0,0.021097429113765893,5,0.3042717999778688,0.5021506999619305,0,0.5244879999663681,0.7388327999506146,1,1.3882303999271244,1.5549413000699133,,,57.0,60.0,27942,60.0,
-77,77,-45,14,14,238,4,,,,,,,,,,,session,2764.595210599946,162.0,2.0,72.0,0.021097429113765893,2,0.5042212000116706,0.7776180000510067,1,0.4780256000813097,0.7287123999558389,0,0.011059700045734644,0.01293770014308393,,,54.0,66.0,27942,60.0,
-77,77,90,14,15,239,7,,,,,,,,,,,session,2772.30248069996,138.0,2.0,72.0,0.021097429113765893,5,0.5559312000405043,0.7901133000850677,6,0.01164539996534586,0.013521699933335185,0,0.11452010017819703,0.36595840007066727,,,66.0,63.0,27942,60.0,
-77,77,90,14,15,239,7,,,materials/instructions\12_break.png,2779.398141700076,2823.20758799999,0,43.67191180004738,43.80745429988019,0.010258599882945418,43.812862399965525,,,,,,,,,,,,,,,,,,,,27942,60.0,
77,77,45,15,0,240,2,,,,,,,,,,,session,2823.2215974000283,156.0,2.0,72.0,0.4,5,0.26313229999504983,0.3807771001011133,7,0.7221923000179231,0.8889993999619037,6,1.3098279000259936,1.4443133000750095,,,69.0,48.0,27942,60.0,
-77,-77,45,15,1,241,14,,,,,,,,,,,session,2831.930325000081,150.0,2.0,72.0,0.021097429113765893,5,1.1914609998930246,1.3917389998678118,7,0.07175979996100068,0.2594417999498546,0,0.010993900010362267,0.0459565999917686,,,48.0,63.0,27942,60.0,
-77,-77,0,15,2,242,13,,,,,,,,,,,session,2839.570523200091,180.0,2.0,72.0,0.021097429113765893,4,0.45448760013096035,0.6546365001704544,6,0.3004018999636173,0.500455099856481,0,0.5881687998771667,0.8549216000828892,,,72.0,51.0,27942,60.0,
77,77,90,15,3,243,3,,,,,,,,,,,session,2848.076251300052,150.0,2.0,72.0,0.021097429113765893,5,0.7353835001122206,0.9187829999718815,7,0.29126260010525584,0.49157700012438,0,0.01113869994878769,0.0674715000204742,,,60.0,69.0,27942,60.0,
77,-77,45,15,4,244,10,,,,,,,,,,,session,2855.646826500073,180.0,2.0,72.0,0.021097429113765893,4,0.28833510004915297,0.4884964001830667,6,0.5718948000576347,0.756895300000906,0,0.35386550007387996,0.5715542999096215,,,66.0,48.0,27942,60.0,
77,-77,-45,15,5,245,8,,,,,,,,,,,session,2864.423516200157,168.0,2.0,72.0,0.021097429113765893,4,0.011316400021314621,0.01477490016259253,1,1.340773600153625,1.556582699995488,1,0.8215008000843227,1.0723763999994844,,,51.0,48.0,27942,60.0,
-77,-77,90,15,6,246,15,,,,,,,,,,,session,2872.96035700012,144.0,2.0,72.0,0.021097429113765893,3,0.38735050009563565,0.6040427999105304,6,0.4548981001134962,0.6384481000714004,0,0.8302972000092268,1.1656086998991668,,,48.0,48.0,27942,60.0,
77,77,-45,15,7,247,0,,,,,,,,,,,session,2880.828766199993,144.0,2.0,72.0,0.4,5,0.3650946000125259,0.5650402000173926,1,0.9901565997861326,1.2399770999327302,6,0.012040199944749475,0.013965800171718001,,,54.0,66.0,27942,60.0,
-77,-77,-45,15,8,248,12,,,,,,,,,,,session,2888.786984000122,180.0,2.0,72.0,0.4,3,0.01207230007275939,0.014008200028911233,1,0.303317999932915,0.5534055000171065,1,0.010956699959933758,0.012852000072598457,,,69.0,48.0,27942,60.0,
-77,77,90,15,9,249,7,,,,,,,,,,,session,2895.7709816000424,168.0,2.0,72.0,0.021097429113765893,2,0.04994169995188713,0.23394920001737773,6,0.5130973998457193,0.7024935998488218,1,0.011430899845436215,0.013358899857848883,,,57.0,72.0,27942,60.0,
-77,77,0,15,10,250,5,,,,,,,,,,,session,2903.126594200032,168.0,2.0,72.0,0.4,2,0.010938800172880292,0.012856699991971254,0,0.011474600061774254,0.013354600174352527,6,0.011061999946832657,0.012997099896892905,,,69.0,72.0,27942,60.0,
77,77,0,15,11,251,1,,,,,,,,,,,session,2910.0178137000185,162.0,2.0,72.0,0.021097429113765893,5,0.011342999991029501,0.013242499902844429,0,0.012511600041761994,0.036415599985048175,1,0.011098199989646673,0.18347339984029531,,,60.0,57.0,27942,60.0,
77,-77,0,15,12,252,9,,,,,,,,,,,session,2916.360246400116,144.0,2.0,72.0,0.021097429113765893,4,0.2549863997846842,0.4539267998188734,0,0.012570499908179045,0.25419020000845194,1,0.011013699928298593,0.14957579993642867,,,60.0,63.0,27942,60.0,
-77,77,-45,15,13,253,4,,,,,,,,,,,session,2923.118513799971,168.0,2.0,72.0,0.021097429113765893,2,0.028034700080752373,0.23261519987136126,1,0.4858999999705702,0.7365137999877334,1,0.9087719998788089,1.1422003000043333,,,72.0,48.0,27942,60.0,
77,-77,90,15,14,254,11,,,,,,,,,,,session,2932.076479600044,132.0,2.0,72.0,0.021097429113765893,3,0.45056080003269017,0.684047699905932,6,0.3040636999066919,0.5043146000243723,0,0.2870395998470485,0.5393725000321865,,,69.0,60.0,27942,60.0,
-77,77,45,15,15,255,6,,,,,,,,,,,session,2939.598207900068,138.0,2.0,72.0,0.021097429113765893,2,0.31840420002117753,0.5864373000804335,7,0.536306600086391,0.73641959996894,0,0.011726399883627892,0.013723199954256415,,,66.0,72.0,27942,60.0,
-77,77,0,16,0,256,5,,,,,,,,,,,session,2946.9915581999812,126.0,2.0,72.0,0.021097429113765893,2,0.2643882997799665,0.5143963999580592,0,0.27963449992239475,0.5820568997878581,1,0.6511977999471128,0.9672660999931395,,,66.0,63.0,27942,60.0,
-77,77,90,16,1,257,7,,,,,,,,,,,session,2955.059445800027,138.0,2.0,72.0,0.021097429113765893,2,0.23316970001906157,0.5182237999979407,6,0.11964779999107122,0.3536121998913586,1,0.1210912000387907,0.37288250005804,,,57.0,72.0,27942,60.0,
77,77,-45,16,2,258,0,,,,,,,,,,,session,2962.1982710000593,174.0,2.0,72.0,0.021097429113765893,5,0.30250460002571344,0.502642699982971,1,0.6200937000103295,0.836611800128594,1,0.010972100077196956,0.012853299966081977,,,60.0,63.0,27942,60.0,
77,77,45,16,3,259,2,,,,,,,,,,,session,2969.938609200064,138.0,2.0,72.0,0.021097429113765893,4,0.7195915000047535,0.8865120001137257,7,0.011538299964740872,0.03080389997921884,0,0.011130600003525615,0.23418139992281795,,,69.0,60.0,27942,60.0,
77,77,45,16,3,259,2,,,materials/instructions\12_break.png,2977.1401653001085,3007.5946790999733,0,30.30267890007235,30.452230900060385,0.018710300093516707,30.460595400072634,,,,,,,,,,,,,,,,,,,,27942,60.0,
77,77,0,16,4,260,1,,,,,,,,,,,session,3007.6108663999476,150.0,2.0,72.0,0.021097429113765893,5,0.010943700093775988,0.11241480009630322,0,0.5523012999910861,0.7304644999094307,1,1.0157247998286039,1.1293198999483138,,,66.0,66.0,27942,60.0,
-77,-77,-45,16,5,261,12,,,,,,,,,,,session,3015.758548800135,162.0,2.0,72.0,0.021097429113765893,3,0.33515259996056557,0.5172414998523891,1,0.5340617999900132,0.7180763001088053,1,1.8961333001498133,2.0463820002041757,,,51.0,57.0,27942,60.0,
77,-77,90,16,6,262,11,,,,,,,,,,,session,3024.993824200006,132.0,2.0,72.0,0.021097429113765893,4,0.35341429989784956,0.5705311000347137,6,0.011574700009077787,0.013471700018271804,0,1.1146549999248236,0.01088840002194047,,,60.0,57.0,27942,60.0,
77,-77,0,16,7,263,9,,,,,,,,,,,session,3032.3010537000373,168.0,2.0,72.0,0.021097429113765893,4,0.035629300167784095,0.03755270014517009,0,0.011384000070393085,0.013299900107085705,0,0.011157900094985962,0.07132260012440383,,,63.0,69.0,27942,60.0,
-77,77,45,16,8,264,6,,,,,,,,,,,session,3039.53989120014,150.0,2.0,72.0,0.021097429113765893,5,1.5864723999984562,1.8700954001396894,6,0.031848200131207705,0.30004250002093613,0,0.43602340016514063,0.7179408001247793,,,66.0,60.0,27942,60.0,
-77,-77,0,16,9,265,13,,,,,,,,,,,session,3048.477695700014,180.0,2.0,72.0,0.021097429113765893,3,0.7526692000683397,0.984588700113818,7,0.2860962999984622,0.5554444999434054,0,0.3911813001614064,0.5469810001086444,,,72.0,54.0,27942,60.0,
-77,-77,90,16,10,266,15,,,,,,,,,,,session,3057.111444100039,162.0,2.0,72.0,0.021097429113765893,3,0.010959800099954009,0.043480300111696124,6,0.012865300057455897,0.1668731002137065,1,0.30931150005199015,0.5438002001028508,,,48.0,51.0,27942,60.0,
-77,77,-45,16,11,267,4,,,,,,,,,,,session,3064.0775046001654,168.0,2.0,72.0,0.4,2,0.011053099995478988,0.2826513999607414,1,0.6228807000443339,0.8898205999284983,6,0.01116100000217557,0.22034919983707368,,,63.0,72.0,27942,60.0,
77,-77,45,16,12,268,10,,,,,,,,,,,session,3071.9626697001513,156.0,2.0,72.0,0.021097429113765893,5,0.6033796002157032,0.8195983001496643,6,0.011651299893856049,0.01357439998537302,0,0.012083299923688173,0.137444700114429,,,66.0,51.0,27942,60.0,
77,77,90,16,13,269,3,,,,,,,,,,,session,3078.9508885000832,144.0,2.0,72.0,0.4,5,0.01123779988847673,0.013120499905198812,6,0.011502699926495552,0.013429899932816625,7,0.037166399881243706,0.3235588998068124,,,63.0,48.0,27942,60.0,
-77,-77,45,16,14,270,14,,,,,,,,,,,session,3085.474541499978,156.0,2.0,72.0,0.4,3,0.011401799973100424,0.013345299987122416,7,0.8028038998600096,1.0361846999730915,7,0.03278949996456504,0.2682958000805229,,,57.0,48.0,27942,60.0,
77,-77,-45,16,15,271,8,,,,,,,,,,,session,3092.596153000137,156.0,2.0,72.0,0.021097429113765893,4,0.6700246999971569,0.8373088999651372,1,0.30184109997935593,0.5187496999278665,0,0.4567019999958575,0.6708692999090999,,,54.0,51.0,27942,60.0,
77,77,45,17,0,272,2,,,,,,,,,,,session,3100.4171967001166,132.0,2.0,72.0,0.021097429113765893,5,0.281046099960804,0.4466763997916132,7,0.4023223000112921,0.6022139999549836,1,0.33110459987074137,0.5308517999947071,,,72.0,69.0,27942,60.0,
-77,77,90,17,1,273,7,,,,,,,,,,,session,3108.3630218000617,168.0,2.0,72.0,0.021097429113765893,2,0.011003599967807531,0.24023559992201626,6,0.011517400154843926,0.17510270001366735,1,1.1695882000494748,1.3856449001468718,,,60.0,51.0,27942,60.0,
77,77,0,17,2,274,1,,,,,,,,,,,session,3116.2652130001225,174.0,2.0,72.0,0.021097429113765893,5,0.011007599998265505,0.204918900039047,0,0.011452500009909272,0.1518265998456627,1,0.011394200148060918,0.07418560003861785,,,60.0,66.0,27942,60.0,
-77,-77,45,17,3,275,14,,,,,,,,,,,session,3123.150458500022,180.0,2.0,72.0,0.021097429113765893,5,0.6370260999538004,0.8709605999756604,7,0.0125343999825418,0.1988379000686109,0,0.6819023999851197,0.8818946999963373,,,54.0,69.0,27942,60.0,
77,-77,90,17,4,276,11,,,,,,,,,,,session,3131.9785512001254,126.0,2.0,72.0,0.021097429113765893,5,0.5704473000951111,0.7706875000149012,6,0.011776800034567714,0.013699900126084685,0,0.011482900008559227,0.2333049001172185,,,69.0,72.0,27942,60.0,
77,-77,45,17,5,277,10,,,,,,,,,,,session,3138.896930200048,162.0,2.0,72.0,0.021097429113765893,5,0.5843744000885636,0.8011138001456857,7,0.22452849987894297,0.424699799856171,0,0.2969786000903696,0.5346314001362771,,,66.0,69.0,27942,60.0,
77,-77,0,17,6,278,9,,,,,,,,,,,session,3147.0954323001206,168.0,2.0,72.0,0.021097429113765893,4,0.41924770013429224,0.5891983001492918,6,0.011597400065511465,0.01344730006530881,0,0.3840457999613136,0.6174556999467313,,,72.0,60.0,27942,60.0,
-77,77,0,17,7,279,5,,,,,,,,,,,session,3154.7973772000987,156.0,2.0,72.0,0.021097429113765893,2,1.3042627999093384,1.538104600040242,7,0.6394241000525653,0.8075242999475449,0,0.4531900000292808,0.6698433000128716,,,60.0,54.0,27942,60.0,
-77,77,0,17,7,279,5,,,materials/instructions\12_break.png,3163.7763930000365,3210.065431300085,0,46.13663459988311,46.28688480006531,0.024810200091451406,46.294807699974626,,,,,,,,,,,,,,,,,,,,27942,60.0,
77,77,-45,17,8,280,0,,,,,,,,,,,session,3210.0808344001416,144.0,2.0,72.0,0.021097429113765893,5,0.012708799913525581,0.154684399953112,1,0.8217705998104066,1.0228822999633849,1,0.8410078000742942,1.0411801000591367,,,48.0,51.0,27942,60.0,
-77,-77,-45,17,9,281,12,,,,,,,,,,,session,3218.3961663001683,132.0,2.0,72.0,0.021097429113765893,4,0.37182309990748763,0.5555427998770028,1,0.011478299973532557,0.013373499969020486,0,0.4370329000521451,0.6550571999978274,,,63.0,54.0,27942,60.0,
-77,-77,0,17,10,282,13,,,,,,,,,,,session,3225.2153316000476,162.0,2.0,72.0,0.021097429113765893,3,0.010930600110441446,0.18601269996725023,0,0.011601499980315566,0.013756899861618876,1,0.011206799885258079,0.013106599915772676,,,66.0,63.0,27942,60.0,
-77,-77,90,17,11,283,15,,,,,,,,,,,session,3231.7450872000773,174.0,2.0,72.0,0.021097429113765893,3,0.010942499851807952,0.013000000035390258,6,0.012311100028455257,0.014221200020983815,1,0.011109499959275126,0.013035899959504604,,,54.0,69.0,27942,60.0,
-77,77,45,17,12,284,6,,,,,,,,,,,session,3238.819428100018,168.0,2.0,72.0,0.4,2,0.012047199998050928,0.013996100053191185,7,0.7531600999645889,0.9700284998398274,1,0.45375100011006,0.6705498001538217,,,69.0,66.0,27942,60.0,
77,-77,-45,17,13,285,8,,,,,,,,,,,session,3246.980795199983,156.0,2.0,72.0,0.021097429113765893,5,1.0362959001213312,1.2535663000307977,6,0.011784400092437863,0.06205140007659793,0,0.011147499782964587,0.1155405999161303,,,60.0,66.0,27942,60.0,
-77,77,-45,17,14,286,4,,,,,,,,,,,session,3254.6008983000647,144.0,2.0,72.0,0.021097429113765893,2,0.05747699993662536,0.07412460003979504,1,0.4548605000600219,0.6728550000116229,1,1.4860547999851406,1.7010161001235247,,,69.0,48.0,27942,60.0,
77,77,90,17,15,287,3,,,,,,,,,,,session,3263.4796092000324,168.0,2.0,72.0,0.4,5,0.011014100164175034,0.032981600146740675,6,0.011529600014910102,0.05067470017820597,7,0.20266940002329648,0.4195199999958277,,,63.0,51.0,27942,60.0,
77,-77,45,18,0,288,10,,,,,,,,,,,session,3270.129924800014,144.0,2.0,72.0,0.021097429113765893,4,0.011075900169089437,0.01296890014782548,7,0.6044505999889225,0.7876633000560105,1,0.03393610008060932,0.2530420001130551,,,51.0,48.0,27942,60.0,
77,77,-45,18,1,289,0,,,,,,,,,,,session,3276.686503400095,132.0,2.0,72.0,0.021097429113765893,5,0.5480597000569105,0.8150521998759359,6,0.01261099986732006,0.2375619998201728,0,1.1441087999846786,1.4444464000407606,,,60.0,57.0,27942,60.0,
-77,-77,0,18,2,290,13,,,,,,,,,,,session,3285.3294554001186,168.0,2.0,72.0,0.021097429113765893,3,0.010805699974298477,0.012955200159922242,0,0.012780900113284588,0.01480120001360774,1,0.7199899000115693,0.9368276000022888,,,69.0,57.0,27942,60.0,
-77,77,-45,18,3,291,4,,,,,,,,,,,session,3292.648676099954,132.0,2.0,72.0,0.021097429113765893,5,1.2205145999323577,1.3871329999528825,6,0.011739999987185001,0.013638400007039309,0,0.24067309987731278,0.52499910001643,,,69.0,54.0,27942,60.0,
-77,-77,45,18,4,292,14,,,,,,,,,,,session,3300.272606600076,132.0,2.0,72.0,0.021097429113765893,3,0.16518899984657764,0.39861449995078146,7,0.5735615000594407,0.7585893999785185,0,0.27553110010921955,0.5093885001260787,,,57.0,57.0,27942,60.0,
77,77,45,18,5,293,2,,,,,,,,,,,session,3307.8961927001365,162.0,2.0,72.0,0.021097429113765893,5,1.2174198001157492,1.4351874000858516,6,0.011754200095310807,0.013683200115337968,0,0.6437229998409748,0.8939634999260306,,,69.0,51.0,27942,60.0,
77,-77,0,18,6,294,9,,,,,,,,,,,session,3316.383737300057,174.0,2.0,72.0,0.4,4,0.26504760002717376,0.46517469990067184,0,0.011917900061234832,0.16992369992658496,1,2.3487941999919713,2.683653400046751,,,48.0,72.0,27942,60.0,
77,-77,90,18,7,295,11,,,,,,,,,,,session,3326.048925700132,180.0,2.0,72.0,0.021097429113765893,4,0.21844590012915432,0.43428790010511875,6,0.011638399912044406,0.01351219997741282,1,0.9529661000706255,1.1707765001337975,,,69.0,69.0,27942,60.0,
77,77,90,18,8,296,3,,,,,,,,,,,session,3334.4140024001244,174.0,2.0,72.0,0.021097429113765893,5,0.011253499891608953,0.013131599873304367,6,0.011748800054192543,0.01364880008623004,1,0.6704979999922216,0.8505084998905659,,,72.0,48.0,27942,60.0,
-77,77,0,18,9,297,5,,,,,,,,,,,session,3341.634201399982,180.0,2.0,72.0,0.021097429113765893,2,0.010719700017943978,0.012562000192701817,0,0.3060232000425458,0.5505345000419766,1,0.15095439995639026,0.39911410002969205,,,48.0,60.0,27942,60.0,
-77,77,45,18,10,298,6,,,,,,,,,,,session,3349.5598631999455,156.0,2.0,72.0,0.4,2,0.010869299992918968,0.012718199985101819,7,0.5199752999469638,0.68748619989492,6,0.9192252000793815,1.1526787001639605,,,60.0,54.0,27942,60.0,
-77,-77,-45,18,11,299,12,,,,,,,,,,,session,3357.3639988000505,174.0,2.0,72.0,0.021097429113765893,3,0.1698257999960333,0.4200668998528272,1,0.4242795000318438,0.6077264999039471,1,0.7020729000214487,0.8864140000659972,,,69.0,48.0,27942,60.0,
-77,-77,-45,18,11,299,12,,,materials/instructions\12_break.png,3365.6019665000495,3370.6255793001037,0,4.821626799879596,5.021615199977532,0.019774700049310923,5.029200999997556,,,,,,,,,,,,,,,,,,,,27942,60.0,
-77,77,90,18,12,300,7,,,,,,,,,,,session,3370.641749100061,156.0,2.0,72.0,0.021097429113765893,5,0.6278200000524521,0.827549000037834,6,0.01189119997434318,0.0690928001422435,0,0.3524595000781119,0.53592549986206,,,72.0,69.0,27942,60.0,
-77,-77,90,18,13,301,15,,,,,,,,,,,session,3378.479381100042,180.0,2.0,72.0,0.021097429113765893,5,0.5730918000917882,0.8737399000674486,7,0.054465100169181824,0.3228959001135081,0,0.010967700043693185,0.2350740998517722,,,48.0,60.0,27942,60.0,
77,77,0,18,14,302,1,,,,,,,,,,,session,3386.152611100115,138.0,2.0,72.0,0.4,5,0.010898499982431531,0.012740599922835827,0,0.011574199888855219,0.13652709987945855,7,0.01105600013397634,0.012959100073203444,,,54.0,69.0,27942,60.0,
77,-77,-45,18,15,303,8,,,,,,,,,,,session,3392.621061200043,150.0,2.0,72.0,0.4,4,0.011302500031888485,0.013196000130847096,1,0.45591010013595223,0.6901219000574201,0,0.011005899868905544,0.013113799970597029,,,48.0,69.0,27942,60.0,
-77,-77,45,19,0,304,14,,,,,,,,,,,session,3399.2239506000187,126.0,2.0,72.0,0.021097429113765893,5,0.5732714000623673,0.7560016000643373,6,0.34083290002308786,0.5084422000218183,0,0.63921679998748,0.8885453999973834,,,60.0,63.0,27942,60.0,
-77,-77,-45,19,1,305,12,,,,,,,,,,,session,3406.9684598001186,150.0,2.0,72.0,0.021097429113765893,3,0.9741986999288201,1.1953006000258029,1,0.011483199894428253,0.013374899979680777,0,0.011124999960884452,0.2863113998901099,,,69.0,63.0,27942,60.0,
-77,-77,0,19,2,306,13,,,,,,,,,,,session,3414.979589900002,180.0,2.0,72.0,0.021097429113765893,5,0.9660627001430839,1.1344410001765937,6,0.011581700062379241,0.15404390008188784,0,0.011022899998351932,0.1882480001077056,,,66.0,63.0,27942,60.0,
-77,-77,90,19,3,307,15,,,,,,,,,,,session,3423.0486661000177,156.0,2.0,72.0,0.021097429113765893,2,0.4497054999228567,0.7192909999284893,7,0.011934199836105108,0.1700904997996986,0,0.14977580006234348,0.450191100127995,,,54.0,57.0,27942,60.0,
77,77,-45,19,4,308,0,,,,,,,,,,,session,3430.286327500129,144.0,2.0,72.0,0.4,5,0.011996299959719181,0.013910599984228611,1,0.7928776999469846,1.0927325000520796,7,0.06806670012883842,0.2849397000391036,,,66.0,69.0,27942,60.0,
77,-77,0,19,5,309,9,,,,,,,,,,,session,3438.310287800152,174.0,2.0,72.0,0.021097429113765893,4,0.548980199964717,0.7481772999744862,6,0.011499200016260147,0.13900869991630316,0,0.3172635000664741,0.5507807999383658,,,48.0,63.0,27942,60.0,
-77,77,-45,19,6,310,4,,,,,,,,,,,session,3445.9657658999786,168.0,2.0,72.0,0.021097429113765893,2,0.34990859986282885,0.6167102998588234,1,0.4230267000384629,0.6230842000804842,1,0.010877700056880713,0.20278810011222959,,,69.0,63.0,27942,60.0,
77,77,0,19,7,311,1,,,,,,,,,,,session,3453.8541005000006,150.0,2.0,72.0,0.021097429113765893,5,0.010943700093775988,0.14734510006383061,0,0.4035149000119418,0.6535192001610994,1,2.051385900005698,2.267985099926591,,,63.0,63.0,27942,60.0,
-77,77,45,19,8,312,6,,,,,,,,,,,session,3463.5647917001043,162.0,2.0,72.0,0.021097429113765893,4,0.8497192000504583,1.049907499924302,7,0.011698800139129162,0.13706260011531413,0,0.33521929988637567,0.5853575998917222,,,51.0,57.0,27942,60.0,
-77,77,0,19,9,313,5,,,,,,,,,,,session,3471.2840146000963,132.0,2.0,72.0,0.021097429113765893,3,0.9536758000031114,1.186934500001371,6,0.30045769992284477,0.498412299901247,0,0.16596630006097257,0.420244799926877,,,66.0,63.0,27942,60.0,
-77,77,90,19,10,314,7,,,,,,,,,,,session,3479.198375400156,180.0,2.0,72.0,0.021097429113765893,2,0.36222600005567074,0.595616300124675,0,0.3551452998071909,0.6051578999031335,0,1.719764299923554,1.9687751999590546,,,66.0,54.0,27942,60.0,
77,-77,90,19,11,315,11,,,,,,,,,,,session,3488.830817000009,162.0,2.0,72.0,0.021097429113765893,5,0.8861428999807686,1.0864512000698596,6,0.011865500127896667,0.013797900173813105,0,0.3173630000092089,0.5340026000048965,,,69.0,63.0,27942,60.0,
77,77,90,19,12,316,3,,,,,,,,,,,session,3496.80312149995,132.0,2.0,72.0,0.4,5,0.011616599978879094,0.0137491999194026,6,0.6032283001113683,0.7832470000721514,7,2.003274600021541,2.2202229001559317,,,51.0,60.0,27942,60.0,
77,-77,-45,19,13,317,8,,,,,,,,,,,session,3505.8979220001493,138.0,2.0,72.0,0.021097429113765893,3,0.8861952999141067,1.1175202000886202,1,0.9385550001170486,1.1711065000854433,0,0.06946959998458624,0.35289139999076724,,,69.0,60.0,27942,60.0,
77,77,45,19,14,318,2,,,,,,,,,,,session,3514.4318721001036,126.0,2.0,72.0,0.021097429113765893,5,0.3213728000409901,0.5056819999590516,7,0.7623768001794815,0.9692053999751806,0,0.6424183999188244,0.9111969999503344,,,63.0,51.0,27942,60.0,
77,-77,45,19,15,319,10,,,,,,,,,,,session,3522.260371600045,132.0,2.0,72.0,0.021097429113765893,4,0.7003068998456001,0.8507413999177516,6,0.4832250999752432,0.6668974999338388,0,0.08407179987989366,0.3529137000441551,,,48.0,51.0,27942,60.0,
77,-77,45,19,15,319,10,,,materials/instructions\12_break.png,3529.5771508000325,3540.316979299998,0,10.486194299999624,10.737557899905369,0.019917199853807688,10.745335799874738,,,,,,,,,,,,,,,,,,,,27942,60.0,
77,-77,-45,20,0,320,8,,,,,,,,,,,session,3540.332095199963,144.0,2.0,72.0,0.021097429113765893,4,0.012462100014090538,0.014649100136011839,1,0.4593470999971032,0.6901595001108944,1,1.0502845000009984,1.266966599971056,,,48.0,63.0,27942,60.0,
-77,77,45,20,1,321,6,,,,,,,,,,,session,3548.511584999971,174.0,2.0,72.0,0.021097429113765893,5,0.670484900008887,0.8697987000923604,7,0.012601299909874797,0.01450189994648099,0,0.9518969000782818,1.1523015999700874,,,69.0,60.0,27942,60.0,
-77,-77,90,20,2,322,15,,,,,,,,,,,session,3557.051588700153,126.0,2.0,72.0,0.021097429113765893,3,0.21899589989334345,0.4520596999209374,6,0.011525499867275357,0.0697756998706609,1,0.011041100136935711,0.01319209998473525,,,51.0,60.0,27942,60.0,
77,-77,90,20,3,323,11,,,,,,,,,,,session,3562.9821008001454,150.0,2.0,72.0,0.021097429113765893,4,0.010784599930047989,0.012635799823328853,6,0.011763199931010604,0.013654399896040559,1,0.011137699941173196,0.16437559993937612,,,54.0,57.0,27942,60.0,
77,77,0,20,4,324,1,,,,,,,,,,,session,3569.5280969000887,180.0,2.0,72.0,0.021097429113765893,5,0.6860166999977082,0.9505115998908877,6,0.3045614999718964,0.5218942000064999,0,0.22035899991169572,0.48722689994610846,,,54.0,66.0,27942,60.0,
77,-77,0,20,5,325,9,,,,,,,,,,,session,3577.949007499963,144.0,2.0,72.0,0.021097429113765893,4,0.011413699947297573,0.01333409990184009,0,0.011884399922564626,0.013801999855786562,1,0.01109150005504489,0.165650499984622,,,66.0,60.0,27942,60.0,
-77,-77,-45,20,6,326,12,,,,,,,,,,,session,3584.0879155001603,156.0,2.0,72.0,0.4,3,0.027187999803572893,0.46256729983724654,1,3.706605500075966,3.9084029998630285,6,0.011050099972635508,0.13456499995663762,,,54.0,63.0,27942,60.0,
77,77,45,20,7,327,2,,,,,,,,,,,session,3595.0622628000565,150.0,2.0,72.0,0.021097429113765893,4,0.787445800146088,0.9543302999809384,7,0.5866955001838505,0.011812400072813034,0,0.28877390013076365,0.011128799989819527,,,60.0,48.0,27942,60.0,
-77,77,90,20,8,328,7,,,,,,,,,,,session,3602.654928199947,180.0,2.0,72.0,0.021097429113765893,2,1.3708116998896003,1.6542088999412954,1,0.011665300000458956,0.01357030007056892,0,0.011983799980953336,0.01387230004183948,,,72.0,69.0,27942,60.0,
-77,77,-45,20,9,329,4,,,,,,,,,,,session,3611.1294297999702,180.0,2.0,72.0,0.021097429113765893,5,0.5555114999879152,0.7715894000139087,6,0.011474100174382329,0.013369400054216385,0,0.04756690002977848,0.3348668999969959,,,69.0,66.0,27942,60.0,
-77,-77,45,20,10,330,14,,,,,,,,,,,session,3618.983568200143,138.0,2.0,72.0,0.021097429113765893,4,1.2232061999384314,1.407856100006029,7,0.25646380009129643,0.43991130008362234,0,0.01164379995316267,0.013755999971181154,,,54.0,66.0,27942,60.0,
-77,77,0,20,11,331,5,,,,,,,,,,,session,3626.5796014999505,168.0,2.0,72.0,0.021097429113765893,4,0.4108212999999523,0.5773444999940693,6,0.011988700134679675,0.013912399997934699,0,0.01140239997766912,0.1991989000234753,,,72.0,48.0,27942,60.0,
-77,-77,0,20,12,332,13,,,,,,,,,,,session,3633.6336018999573,174.0,2.0,72.0,0.021097429113765893,2,0.45832670014351606,0.7369835001882166,1,0.452900999924168,0.6688979000318795,0,0.29952059988863766,0.6158623998053372,,,51.0,54.0,27942,60.0,
77,-77,45,20,13,333,10,,,,,,,,,,,session,3641.7641306000296,162.0,2.0,72.0,0.021097429113765893,4,0.08518769987858832,0.3025096000637859,7,0.40748540009371936,0.5851527000777423,1,0.01187520008534193,0.27152559999376535,,,72.0,60.0,27942,60.0,
77,77,-45,20,14,334,0,,,,,,,,,,,session,3649.271838000044,144.0,2.0,72.0,0.021097429113765893,5,0.5301173999905586,1.0497045000083745,6,0.011424000142142177,0.013282699976116419,0,0.16540950001217425,0.43062349990941584,,,72.0,54.0,27942,60.0,
77,77,90,20,15,335,3,,,,,,,,,,,session,3656.761841899948,150.0,2.0,72.0,0.021097429113765893,5,0.43701429991051555,0.6525071000214666,6,0.011520500062033534,0.01343069993890822,0,0.3151118999812752,0.5487520999740809,,,66.0,72.0,27942,60.0,
77,-77,45,21,0,336,10,,,,,,,,,,,session,3664.2314194999635,162.0,2.0,72.0,0.021097429113765893,3,1.0891358000226319,1.3062555000651628,7,0.3890746000688523,0.5572186999488622,0,0.30587859987281263,0.5562382999341935,,,51.0,48.0,27942,60.0,
-77,-77,0,21,1,337,13,,,,,,,,,,,session,3672.43807490007,138.0,2.0,72.0,0.4,3,0.33564099995419383,0.5355795999057591,0,0.06694880011491477,0.2660189000889659,6,0.011063899844884872,0.06766909989528358,,,54.0,48.0,27942,60.0,
77,-77,0,21,2,338,9,,,,,,,,,,,session,3679.1299253001343,150.0,2.0,72.0,0.021097429113765893,2,0.9606476000044495,1.194770700065419,6,0.01151039986871183,0.013424600008875132,0,0.2836261000484228,0.5195063999854028,,,51.0,54.0,27942,60.0,
