x,y,orientation,.thisRepN,.thisTrialN,.thisN,.thisIndex,.stepSize,.intensity,image_name,global_start_time,global_end_time,pressKey,pressRT,releaseRT,image_started,image_ended,name,globalTime,fixation_dur,stimulation_dur,post_fixation,opacity,locationResponse_pressKey,locationResponse_pressRT,locationResponse_releaseRT,orientationResponse_pressKey,orientationResponse_pressRT,orientationResponse_releaseRT,pasResponse_pressKey,pasResponse_pressRT,pasResponse_releaseRT,.response,finalOpacity,postLoc,postOri,ID,frameRate,
,,,0,-1,-1,0,0.0969100130080564,None,materials/instructions\1_welcome.png,2.4962115000234917,4.189678899943829,0,1.6101004000520334,1.6919029999990016,0.06780680001247674,1.6916961000533774,,,,,,,,,,,,,,,,,,,,28483,60.0,
,,,0,-1,-1,0,0.0969100130080564,None,materials/instructions\2_instruction.png,4.237923200009391,9.892385400016792,0,5.568982600001618,5.652384800021537,0.021626399946399033,5.660101999994367,,,,,,,,,,,,,,,,,,,,28483,60.0,
,,,0,-1,-1,0,0.0969100130080564,None,materials/instructions\3_location_demo.png,9.938380099949427,11.363566100015305,0,1.3379732000175864,1.422936699935235,0.02492190001066774,1.4289338999660686,,,,,,,,,,,,,,,,,,,,28483,60.0,
,,,0,-1,-1,0,0.0969100130080564,None,materials/instructions\4_orientation_demo.png,11.412744399975054,29.19095069996547,0,17.6427736999467,17.77630149992183,0.018001900054514408,17.783823400037363,,,,,,,,,,,,,,,,,,,,28483,60.0,
,,,0,-1,-1,0,0.0969100130080564,None,materials/instructions\5_pas_demo.png,29.243368500028737,39.08339889999479,0,9.770085599971935,9.836820099968463,0.01781950006261468,9.8511990000261,,,,,,,,,,,,,,,,,,,,28483,60.0,
77,77,0,0,-1,-1,0,0.0969100130080564,None,,,,,,,,,session,39.10456649994012,156.0,2.0,72.0,0.1,5,1.3268445000285283,1.4438060000538826,0,1.6474900000030175,1.7475857000099495,6,4.739152499940246,4.8557324999710545,,,,,28483,60.0,
77,77,45,0,-1,-1,0,0.0969100130080564,None,,,,,,,,,session,51.71120190003421,144.0,2.0,72.0,0.1,5,1.0601972000440583,1.1784663000144064,1,7.5585199999623,7.646060399943963,6,2.698236000025645,2.798289900063537,,,,,28483,60.0,
77,77,-45,0,-1,-1,0,0.0969100130080564,None,,,,,,,,,session,67.14134079997893,180.0,2.0,72.0,0.1,5,1.6315375999547541,1.7000748999416828,1,2.10297519993037,2.252465699915774,6,3.590176400030032,3.7230268999701366,,,,,28483,60.0,
-77,77,-45,0,-1,-1,0,0.0969100130080564,None,,,,,,,,,session,79.19740129995625,138.0,2.0,72.0,0.1,2,2.479805300012231,2.5844810999697074,1,1.7779503999045119,1.8796067999210209,7,1.7775544000323862,1.8944556000642478,,,,,28483,60.0,
77,77,90,0,-1,-1,0,0.0969100130080564,None,,,,,,,,,session,89.24413170001935,126.0,2.0,72.0,0.1,5,1.4468616999220103,1.547413899912499,6,2.010877100052312,2.1450232999632135,6,1.9525547999655828,2.052557299961336,,,,,28483,60.0,
,,,0,-1,-1,0,0.0969100130080564,None,materials/instructions\10_staircase_start.png,98.50228230003268,107.09061039995868,0,8.45205329998862,8.585890999995172,0.011562799918465316,8.593464399920776,,,,,,,,,,,,,,,,,,,,28483,60.0,
,,,0,0,-1,0,0.0969100130080564,0.1,,,,,,,,,staircase,107.10487119993195,138.0,2.0,72.0,0.1,,,,7,3.3479496999643743,3.44792750000488,,,,1,,,,28483,60.0,
,,,0,1,-1,0,0.0969100130080564,0.08,,,,,,,,,staircase,114.4269198999973,162.0,2.0,72.0,0.08,,,,7,1.1020643999800086,1.217688100063242,,,,1,,,,28483,60.0,
,,,0,2,-1,0,0.0969100130080564,0.064,,,,,,,,,staircase,119.66040269995574,144.0,2.0,72.0,0.064,,,,1,1.4057984999381006,1.5225404999218881,,,,1,,,,28483,60.0,
,,,0,3,-1,0,0.0969100130080564,0.0512,,,,,,,,,staircase,124.89796949992888,180.0,2.0,72.0,0.0512,,,,6,1.4491682999068871,1.5619914999697357,,,,1,,,,28483,60.0,
,,,0,4,-1,0,0.0969100130080564,0.04096,,,,,,,,,staircase,131.23969610000495,180.0,2.0,72.0,0.04096,,,,0,1.46677900000941,1.600131299928762,,,,1,,,,28483,60.0,
,,,0,5,-1,0,0.0969100130080564,0.032768000000000005,,,,,,,,,staircase,137.15765209996607,180.0,2.0,72.0,0.032768000000000005,,,,6,1.2986541000427678,1.4153629000065848,,,,1,,,,28483,60.0,
,,,0,6,-1,0,0.0969100130080564,0.026214400000000006,,,,,,,,,staircase,142.89459909999277,162.0,2.0,72.0,0.026214400000000006,,,,7,2.0233279999811202,2.140110499924049,,,,1,,,,28483,60.0,
,,,0,7,-1,0,0.0969100130080564,0.020971520000000004,,,,,,,,,staircase,149.05045899993274,144.0,2.0,72.0,0.020971520000000004,,,,1,1.215267000021413,1.3629486999707296,,,,1,,,,28483,60.0,
,,,0,8,-1,0,0.0969100130080564,0.016777216000000005,,,,,,,,,staircase,154.7745802999707,162.0,2.0,72.0,0.016777216000000005,,,,6,2.2699490000959486,2.3374956999905407,,,,0,,,,28483,60.0,
,,,0,9,-1,0,0.0969100130080564,0.020971520000000007,,,,,,,,,staircase,161.12636879994534,162.0,2.0,72.0,0.020971520000000007,,,,1,1.186815399909392,1.3206205999013036,,,,1,,,,28483,60.0,
,,,0,10,-1,0,0.0969100130080564,0.020971520000000007,,,,,,,,,staircase,166.4640290000243,156.0,2.0,72.0,0.020971520000000007,,,,0,2.7440388000104576,2.922173700062558,,,,1,,,,28483,60.0,
,,,0,11,-1,0,0.0969100130080564,0.016777216000000005,,,,,,,,,staircase,173.30442449997645,174.0,2.0,72.0,0.016777216000000005,,,,1,1.8064286999870092,1.9557344999630004,,,,1,,,,28483,60.0,
,,,0,12,-1,0,0.0969100130080564,0.016777216000000005,,,,,,,,,staircase,179.74186710000504,162.0,2.0,72.0,0.016777216000000005,,,,6,0.9882297000149265,1.088323300005868,,,,0,,,,28483,60.0,
,,,0,13,-1,0,0.0969100130080564,0.020971520000000007,,,,,,,,,staircase,184.8432984999381,180.0,2.0,72.0,0.020971520000000007,,,,6,1.123533200006932,1.2223846999695525,,,,0,,,,28483,60.0,
,,,0,14,-1,0,0.0969100130080564,0.02621440000000001,,,,,,,,,staircase,190.38184619997628,180.0,2.0,72.0,0.02621440000000001,,,,1,2.5857314999448135,2.815853000036441,,,,1,,,,28483,60.0,
,,,0,15,-1,0,0.0969100130080564,0.02621440000000001,,,,,,,,,staircase,197.80900479992852,144.0,2.0,72.0,0.02621440000000001,,,,6,1.0437218999722973,1.1770448999013752,,,,0,,,,28483,60.0,
,,,0,16,-1,0,0.0969100130080564,0.03276800000000001,,,,,,,,,staircase,202.72378180001397,156.0,2.0,72.0,0.03276800000000001,,,,0,0.9029252000618726,1.1009966999990866,,,,0,,,,28483,60.0,
,,,0,17,-1,0,0.0969100130080564,0.04096000000000002,,,,,,,,,staircase,207.74568149994593,150.0,2.0,72.0,0.04096000000000002,,,,1,1.4389465999556705,1.5389528999803588,,,,1,,,,28483,60.0,
,,,0,18,-1,0,0.0969100130080564,0.04096000000000002,,,,,,,,,staircase,213.0988662999589,156.0,2.0,72.0,0.04096000000000002,,,,0,0.8833494000136852,0.9942579000489786,,,,1,,,,28483,60.0,
,,,0,19,-1,0,0.0969100130080564,0.03276800000000001,,,,,,,,,staircase,218.3055249999743,162.0,2.0,72.0,0.03276800000000001,,,,1,1.369874499971047,1.4701427000109106,,,,1,,,,28483,60.0,
,,,0,20,-1,0,0.0969100130080564,0.03276800000000001,,,,,,,,,staircase,223.87538620003033,138.0,2.0,72.0,0.03276800000000001,,,,6,0.920470800017938,1.0006549999816343,,,,1,,,,28483,60.0,
,,,0,21,-1,0,0.0969100130080564,0.02621440000000001,,,,,,,,,staircase,228.49565940001048,138.0,2.0,72.0,0.02621440000000001,,,,7,1.0681369999656454,1.1684441999532282,,,,1,,,,28483,60.0,
,,,0,22,-1,0,0.0969100130080564,0.02621440000000001,,,,,,,,,staircase,233.28087010001764,144.0,2.0,72.0,0.02621440000000001,,,,0,0.7804793999530375,0.9041323999408633,,,,0,,,,28483,60.0,
,,,0,23,-1,0,0.0969100130080564,0.03276800000000001,,,,,,,,,staircase,237.89941690000705,156.0,2.0,72.0,0.03276800000000001,,,,0,1.0331901999888942,1.1310242000035942,,,,1,,,,28483,60.0,
,,,0,24,-1,0,0.0969100130080564,0.03276800000000001,,,,,,,,,staircase,243.54092069994658,168.0,2.0,72.0,0.03276800000000001,,,,0,0.353103700093925,0.46972560009453446,,,,1,,,,28483,60.0,
,,,0,25,-1,0,0.0969100130080564,0.02621440000000001,,,,,,,,,staircase,248.12762739998288,126.0,2.0,72.0,0.02621440000000001,,,,0,0.7361432999605313,0.8685037000104785,,,,1,,,,28483,60.0,
,,,0,26,-1,0,0.0969100130080564,0.02621440000000001,,,,,,,,,staircase,252.41116739995778,174.0,2.0,72.0,0.02621440000000001,,,,1,1.3910992000019178,1.5247008999576792,,,,1,,,,28483,60.0,
,,,0,27,-1,0,0.0969100130080564,0.020971520000000007,,,,,,,,,staircase,258.15006419993006,174.0,2.0,72.0,0.020971520000000007,,,,1,2.2056793000083417,2.2898266999982297,,,,1,,,,28483,60.0,
,,,0,28,-1,0,0.0969100130080564,0.020971520000000007,,,,,,,,,staircase,265.2249997999752,126.0,2.0,72.0,0.020971520000000007,,,,6,1.4762251999927685,1.6091763000003994,,,,0,,,,28483,60.0,
,,,0,29,-1,0,0.0969100130080564,0.02621440000000001,,,,,,,,,staircase,270.37742169993,156.0,2.0,72.0,0.02621440000000001,,,,0,0.6750780999427661,0.8264988999580964,,,,1,,,,28483,60.0,
,,,0,30,-1,0,0.0969100130080564,0.02621440000000001,,,,,,,,,staircase,275.11265040002763,132.0,2.0,72.0,0.02621440000000001,,,,0,0.58588119992055,0.7035304999444634,,,,1,,,,28483,60.0,
,,,0,31,-1,0,0.0969100130080564,0.020971520000000007,,,,,,,,,staircase,279.33358809992205,150.0,2.0,72.0,0.020971520000000007,,,,7,1.04855199996382,1.184725199942477,,,,0,,,,28483,60.0,
,,,0,32,-1,0,0.0969100130080564,0.02621440000000001,,,,,,,,,staircase,284.5933920999523,174.0,2.0,72.0,0.02621440000000001,,,,0,0.605546300066635,0.7226078000385314,,,,1,,,,28483,60.0,
,,,0,33,-1,0,0.0969100130080564,0.02621440000000001,,,,,,,,,staircase,289.5590373999439,162.0,2.0,72.0,0.02621440000000001,,,,6,1.118952599936165,1.23569130001124,,,,0,,,,28483,60.0,
,,,0,34,-1,0,0.0969100130080564,0.03276800000000001,,,,,,,,,staircase,294.81008880003355,180.0,2.0,72.0,0.03276800000000001,,,,1,0.6973617000039667,0.8138616000069305,,,,1,,,,28483,60.0,
,,,0,35,-1,0,0.0969100130080564,0.03276800000000001,,,,,,,,,staircase,299.94735659996513,162.0,2.0,72.0,0.03276800000000001,,,,7,2.1204014000250027,2.253842900041491,,,,1,,,,28483,60.0,
,,,0,36,-1,0,0.0969100130080564,0.02621440000000001,,,,,,,,,staircase,306.22235109994654,162.0,2.0,72.0,0.02621440000000001,,,,0,0.7228927999967709,0.87229899992235,,,,0,,,,28483,60.0,
,,,0,37,-1,0,0.0969100130080564,0.03276800000000001,,,,,,,,,staircase,311.25849229993764,126.0,2.0,72.0,0.03276800000000001,,,,0,0.28426790004596114,0.48446690000128,,,,1,,,,28483,60.0,
,,,0,38,-1,0,0.0969100130080564,0.03276800000000001,,,,,,,,,staircase,315.15855990001,174.0,2.0,72.0,0.03276800000000001,,,,1,1.3553286000387743,1.5382722000358626,,,,1,,,,28483,60.0,
,,,0,39,-1,0,0.0969100130080564,0.02621440000000001,,,,,,,,,staircase,320.91337319999,162.0,2.0,72.0,0.02621440000000001,,,,6,0.9045534000033513,1.0579170000273734,,,,1,,,,28483,60.0,
,,,0,40,-1,0,0.0969100130080564,0.02621440000000001,,,,,,,,,staircase,325.98664439993445,174.0,2.0,72.0,0.02621440000000001,,,,7,1.379388300003484,1.4794181999750435,,,,1,,,,28483,60.0,
,,,0,41,-1,0,0.0969100130080564,0.020971520000000007,,,,,,,,,staircase,332.37482489994727,174.0,2.0,72.0,0.020971520000000007,,,,0,0.6331424000672996,0.7332260999828577,,,,1,,,,28483,60.0,
,,,0,42,-1,0,0.0969100130080564,0.020971520000000007,,,,,,,,,staircase,337.3420524999965,156.0,2.0,72.0,0.020971520000000007,,,,6,1.0075394000159577,1.1744807999348268,,,,0,,,,28483,60.0,
,,,0,43,-1,0,0.0969100130080564,0.02621440000000001,,,,,,,,,staircase,342.43076110002585,132.0,2.0,72.0,0.02621440000000001,,,,1,3.5151084000244737,3.6818628000328317,,,,1,,,,28483,60.0,
,,,0,44,-1,0,0.0969100130080564,0.02621440000000001,,,,,,,,,staircase,349.6271545999916,126.0,2.0,72.0,0.02621440000000001,,,,7,0.47896149998996407,0.5981524999951944,,,,1,,,,28483,60.0,
,,,0,45,-1,0,0.0969100130080564,0.020971520000000007,,,,,,,,,staircase,354.02668150002137,180.0,2.0,72.0,0.020971520000000007,,,,6,1.307375100092031,1.4388312000082806,,,,0,,,,28483,60.0,
,,,0,46,-1,0,0.0969100130080564,0.02621440000000001,,,,,,,,,staircase,359.777213399997,162.0,2.0,72.0,0.02621440000000001,,,,0,0.6894959000637755,0.8545555000891909,,,,0,,,,28483,60.0,
,,,0,47,-1,0,0.0969100130080564,0.03276800000000001,,,,,,,,,staircase,364.6457017000066,132.0,2.0,72.0,0.03276800000000001,,,,0,0.8008361000102013,0.9679331999504939,,,,1,,,,28483,60.0,
,,,0,48,-1,0,0.0969100130080564,0.03276800000000001,,,,,,,,,staircase,369.1334939999506,138.0,2.0,72.0,0.03276800000000001,,,,1,1.6824843999929726,1.8301472999155521,,,,1,,,,28483,60.0,
,,,0,49,-1,0,0.0969100130080564,0.02621440000000001,,,,,,,,,staircase,375.20785459992476,138.0,2.0,72.0,0.02621440000000001,,,,6,0.8705368000082672,0.9709894999396056,,,,1,,,,28483,60.0,
,,,0,50,-1,0,0.0969100130080564,0.02621440000000001,,,,,,,,,staircase,379.7951898999745,180.0,2.0,72.0,0.02621440000000001,,,,0,0.6464464999735355,0.8632368999533355,,,,0,,,,28483,60.0,
,,,0,51,-1,0,0.0969100130080564,0.03276800000000001,,,,,,,,,staircase,384.9783977000043,132.0,2.0,72.0,0.03276800000000001,,,,1,1.1533228000625968,1.322564100031741,,,,1,,,,28483,60.0,
,,,0,52,-1,0,0.0969100130080564,0.03276800000000001,,,,,,,,,staircase,389.8188771000132,174.0,2.0,72.0,0.03276800000000001,,,,7,0.6116250999039039,0.7160361999412999,,,,1,,,,28483,60.0,
,,,0,53,-1,0,0.0969100130080564,0.02621440000000001,,,,,,,,,staircase,395.12741329998244,144.0,2.0,72.0,0.02621440000000001,,,,0,0.7716125999577343,0.9533346999669448,,,,1,,,,28483,60.0,
,,,0,54,-1,0,0.0969100130080564,0.02621440000000001,,,,,,,,,staircase,399.85925149999093,126.0,2.0,72.0,0.02621440000000001,,,,6,0.6225798000814393,0.7057648000773042,,,,0,,,,28483,60.0,
,,,0,55,-1,0,0.0969100130080564,0.03276800000000001,,,,,,,,,staircase,403.9765901999781,162.0,2.0,72.0,0.03276800000000001,,,,7,0.8501691999845207,0.9502618999686092,,,,1,,,,28483,60.0,
,,,0,56,-1,0,0.0969100130080564,0.03276800000000001,,,,,,,,,staircase,408.929964400013,132.0,2.0,72.0,0.03276800000000001,,,,0,0.9681834999937564,1.1683540999656543,,,,0,,,,28483,60.0,
,,,0,57,-1,0,0.0969100130080564,0.04096000000000002,,,,,,,,,staircase,413.6197627999354,180.0,2.0,72.0,0.04096000000000002,,,,7,2.456527900067158,0.011405199998989701,,,,1,,,,28483,60.0,
,,,0,58,-1,0,0.0969100130080564,0.04096000000000002,,,,,,,,,staircase,420.94603140000254,132.0,2.0,72.0,0.04096000000000002,,,,0,2.0262179999845102,0.011314700008369982,,,,0,,,,28483,60.0,
,,,0,59,-1,0,0.0969100130080564,0.05120000000000002,,,,,,,,,staircase,426.5139512999449,168.0,2.0,72.0,0.05120000000000002,,,,0,0.9861294999718666,0.011443800060078502,,,,1,,,,28483,60.0,
,,,0,60,-1,0,0.0969100130080564,0.05120000000000002,,,,,,,,,staircase,431.61819800001103,180.0,2.0,72.0,0.05120000000000002,,,,0,0.01156379992607981,0.011536299949511886,,,,1,,,,28483,60.0,
,,,0,61,-1,0,0.0969100130080564,0.04096000000000002,,,,,,,,,staircase,435.94136759999674,126.0,2.0,72.0,0.04096000000000002,,,,0,0.011670500040054321,0.01164529996458441,,,,1,,,,28483,60.0,
,,,0,62,-1,0,0.0969100130080564,0.04096000000000002,,,,,,,,,staircase,439.8905197000131,144.0,2.0,72.0,0.04096000000000002,,,,0,0.011472199927084148,0.011448099976405501,,,,1,,,,28483,60.0,
,,,0,63,-1,0,0.0969100130080564,0.03276800000000001,,,,,,,,,staircase,443.6184376999736,162.0,2.0,72.0,0.03276800000000001,,,,0,0.01193869998678565,0.013899100013077259,,,,1,,,,28483,60.0,
,,,0,64,-1,0,0.0969100130080564,0.03276800000000001,,,,,,,,,staircase,447.65382709994446,138.0,2.0,72.0,0.03276800000000001,,,,0,0.011675699963234365,0.013742499984800816,,,,1,,,,28483,60.0,
,,,0,65,-1,0,0.0969100130080564,0.02621440000000001,,,,,,,,,staircase,451.290145499981,132.0,2.0,72.0,0.02621440000000001,,,,0,0.6033697000239044,0.7880537000019103,,,,1,,,,28483,60.0,
,,,0,66,-1,0,0.0969100130080564,0.02621440000000001,,,,,,,,,staircase,455.6004297999898,138.0,2.0,72.0,0.02621440000000001,,,,6,2.6417484999401495,2.740870099980384,,,,0,,,,28483,60.0,
,,,0,67,-1,0,0.0969100130080564,0.03276800000000001,,,,,,,,,staircase,462.02658970002085,162.0,2.0,72.0,0.03276800000000001,,,,1,0.7221673999447376,0.8389843000331894,,,,0,,,,28483,60.0,
,,,0,68,-1,0,0.0969100130080564,0.04096000000000002,,,,,,,,,staircase,466.8793020999292,174.0,2.0,72.0,0.04096000000000002,,,,6,2.0217575000133365,2.3409840000094846,,,,1,,,,28483,60.0,
,,,0,69,-1,0,0.0969100130080564,0.04096000000000002,,,,,,,,,staircase,473.432307299925,144.0,2.0,72.0,0.04096000000000002,,,,6,0.012421899940818548,0.014339099987410009,,,,1,,,,28483,60.0,
,,,0,-1,-1,0,,,materials/instructions\11_session_start.png,477.1902384000132,499.94979709992185,0,22.623887400026433,22.757516500074416,0.011667400016449392,22.76523870008532,,,,,,,,,,,,,,,,,,,,28483,60.0,
,,,0,-1,-1,0,,,,,,,,,,,,,,,,,,,,,,,,,,,0.03128115200000001,,,28483,60.0,
-77,-77,-45,0,0,0,12,,,,,,,,,,,session,499.9668195999693,156.0,2.0,72.0,0.03128115200000001,5,4.938672499964014,5.021951399976388,0,0.8934879000298679,1.0279422999592498,0,1.5832429999718443,1.6840820999350399,,,63.0,51.0,28483,60.0,
77,77,90,0,1,1,3,,,,,,,,,,,session,513.8453631999437,144.0,2.0,72.0,0.03128115200000001,4,2.351917800027877,2.468620500061661,6,0.46971869992557913,0.5820865000132471,0,0.3996791000245139,0.5338021999923512,,,69.0,66.0,28483,60.0,
77,-77,0,0,2,2,9,,,,,,,,,,,session,523.5565348999808,174.0,2.0,72.0,0.03128115200000001,3,2.07689299993217,2.244192900019698,6,2.06972550007049,2.203036700026132,0,0.8049688999308273,0.9361770999385044,,,72.0,51.0,28483,60.0,
-77,-77,45,0,3,3,14,,,,,,,,,,,session,535.8997022999683,156.0,2.0,72.0,0.03128115200000001,2,1.3003847999498248,1.4337606999324635,1,0.6910659000277519,0.8244713000021875,0,0.5176200000569224,0.6511120001086965,,,66.0,63.0,28483,60.0,
-77,77,0,0,4,4,5,,,,,,,,,,,session,545.0188262999291,150.0,2.0,72.0,0.03128115200000001,2,0.5795817000325769,0.712906900094822,0,2.114557499997318,2.2164025999372825,1,2.664161500055343,2.782554000033997,,,63.0,60.0,28483,60.0,
-77,-77,0,0,5,5,13,,,,,,,,,,,session,557.0468146000057,132.0,2.0,72.0,0.03128115200000001,3,1.0976653000107035,1.2477609999477863,1,2.0031383999157697,2.1354212999576703,1,0.5191076999763027,0.6203278000466526,,,72.0,66.0,28483,60.0,
77,77,0,0,6,6,1,,,,,,,,,,,session,567.0049584999215,156.0,2.0,72.0,0.03128115200000001,5,0.8074979999801144,0.9114469999913126,0,1.0710017000092193,1.1852733000414446,6,2.154308299999684,2.2207794000860304,,,66.0,72.0,28483,60.0,
77,-77,-45,0,7,7,8,,,,,,,,,,,session,578.0627885999857,132.0,2.0,72.0,0.03128115200000001,4,1.4179184000240639,1.550778300035745,1,1.738203699933365,1.821077200002037,1,2.4873440000228584,2.587410799926147,,,63.0,48.0,28483,60.0,
-77,77,-45,0,8,8,4,,,,,,,,,,,session,589.5225787999807,144.0,2.0,72.0,0.03128115200000001,2,4.678003899985924,4.828566099982709,1,1.4355637999251485,1.569312799954787,6,0.450343000004068,0.6003520999802276,,,69.0,72.0,28483,60.0,
77,-77,90,0,9,9,11,,,,,,,,,,,session,603.3985031000338,138.0,2.0,72.0,0.03128115200000001,4,1.7697061999933794,1.8695615000324324,6,1.3405991999898106,1.4065052999649197,1,2.841685099992901,3.007618600036949,,,60.0,66.0,28483,60.0,
-77,77,45,0,10,10,6,,,,,,,,,,,session,615.5314761999762,144.0,2.0,72.0,0.03128115200000001,2,1.2615254000993446,1.3931801000144333,7,1.8150490999687463,1.9482607999816537,1,1.6315448000095785,1.781470499932766,,,69.0,57.0,28483,60.0,
-77,-77,90,0,11,11,15,,,,,,,,,,,session,626.7636057999916,150.0,2.0,72.0,0.03128115200000001,3,1.4545261000748724,1.5690014000283554,6,1.5229723999509588,1.6564239000435919,6,1.6096290999557823,1.7388598000397906,,,63.0,54.0,28483,60.0,
77,77,-45,0,12,12,0,,,,,,,,,,,session,637.6259516000282,174.0,2.0,72.0,0.03128115200000001,5,1.4670261000283062,1.5509525999659672,1,1.1860489000100642,1.3328915999736637,1,1.68666150001809,1.9183057000627741,,,69.0,57.0,28483,60.0,
77,77,45,0,13,13,2,,,,,,,,,,,session,648.979116100003,144.0,2.0,72.0,0.03128115200000001,5,1.8818935999879614,1.983151899999939,7,0.7218992999987677,0.8730919000227004,6,5.374895800021477,5.444110000040382,,,48.0,63.0,28483,60.0,
-77,77,90,0,14,14,7,,,,,,,,,,,session,662.9818160999566,162.0,2.0,72.0,0.03128115200000001,2,1.067222599987872,1.152830099919811,6,1.4207281999988481,1.4875899000326172,1,0.8544195999857038,1.0215490000555292,,,48.0,72.0,28483,60.0,
77,-77,45,0,15,15,10,,,,,,,,,,,session,672.7998115000082,132.0,2.0,72.0,0.03128115200000001,4,1.2067516000242904,1.3067572000436485,7,0.8057646999368444,0.8558624000288546,1,0.30463269993197173,0.4037593000102788,,,66.0,54.0,28483,60.0,
77,77,45,1,0,16,2,,,,,,,,,,,session,681.030702500022,132.0,2.0,72.0,0.03128115200000001,5,1.8150222999975085,1.9653573000105098,7,1.3808838999830186,1.4976257999660447,1,7.604994100052863,7.788490300066769,,,54.0,72.0,28483,60.0,
-77,77,45,1,1,17,6,,,,,,,,,,,session,698.3871523999842,180.0,2.0,72.0,0.03128115200000001,2,0.6823450999800116,0.8155667000683025,1,3.6680455999448895,3.7845996000105515,1,0.35143879998940974,0.7181453000521287,,,66.0,69.0,28483,60.0,
77,-77,45,1,2,18,10,,,,,,,,,,,session,710.5991944000125,156.0,2.0,72.0,0.03128115200000001,4,3.469056500005536,3.58578409999609,0,1.3057131000095978,1.4570679999887943,0,0.36372359993401915,0.5813709999201819,,,48.0,66.0,28483,60.0,
-77,77,-45,1,3,19,4,,,,,,,,,,,session,722.1542522999225,132.0,2.0,72.0,0.03128115200000001,2,0.47753749997355044,0.6129322999622673,1,0.5171135000418872,0.6176046000327915,6,0.3514958000741899,0.5181995000457391,,,60.0,57.0,28483,60.0,
-77,77,-45,1,3,19,4,,,materials/instructions\12_break.png,729.9237704999978,760.0487179999473,0,30.03772810008377,30.12296370009426,0.02350389992352575,30.128747700015083,,,,,,,,,,,,,,,,,,,,28483,60.0,
77,77,0,1,4,20,1,,,,,,,,,,,session,760.0625442999881,150.0,2.0,72.0,0.03128115200000001,5,0.6614785999991,0.7449119999073446,0,0.6902762000681832,0.790237299981527,6,0.9362334000179544,0.9862985999789089,,,69.0,57.0,28483,60.0,
77,-77,-45,1,5,21,8,,,,,,,,,,,session,768.6388529000105,126.0,2.0,72.0,0.03128115200000001,4,0.8287892999360338,0.9143555999035016,1,1.1722055999562144,1.3045305999694392,1,1.0726830998901278,1.2228945998940617,,,54.0,48.0,28483,60.0,
-77,-77,45,1,6,22,14,,,,,,,,,,,session,777.9316112999804,138.0,2.0,72.0,0.03128115200000001,3,1.87001670000609,1.9700930999824777,7,0.49308139993809164,0.5743425999535248,6,2.0034135000314564,2.10278069996275,,,69.0,63.0,28483,60.0,
-77,-77,-45,1,7,23,12,,,,,,,,,,,session,788.507093799999,168.0,2.0,72.0,0.03128115200000001,3,1.4956619000295177,1.5635666999733075,1,1.13616130000446,1.2183795999735594,6,0.29957619996275753,0.41725629998836666,,,48.0,66.0,28483,60.0,
-77,-77,90,1,8,24,15,,,,,,,,,,,session,798.4968289999524,168.0,2.0,72.0,0.03128115200000001,3,1.2000526000047103,1.317820299998857,6,0.46989820001181215,0.6037754999706522,6,0.6035478999838233,0.7353340999688953,,,66.0,51.0,28483,60.0,
77,-77,90,1,9,25,11,,,,,,,,,,,session,807.3518241000129,168.0,2.0,72.0,0.03128115200000001,2,4.1203210999956354,4.187127899960615,7,0.3698845999315381,0.4532733999658376,0,0.29162649996578693,0.44163559994194657,,,63.0,60.0,28483,60.0,
77,-77,0,1,10,26,9,,,,,,,,,,,session,818.7631530999206,156.0,2.0,72.0,0.03128115200000001,4,0.49957119999453425,0.6331516000209376,0,1.755753800040111,1.8550108999479562,1,0.3517515999265015,0.452703999937512,,,48.0,60.0,28483,60.0,
-77,77,0,1,11,27,5,,,,,,,,,,,session,827.5511281000217,138.0,2.0,72.0,0.03128115200000001,2,0.9082885000389069,1.0249560000374913,0,0.2899184999987483,0.38996999990195036,6,0.7919695000164211,0.8808288000291213,,,57.0,60.0,28483,60.0,
-77,77,90,1,12,28,7,,,,,,,,,,,session,835.532658000011,162.0,2.0,72.0,0.03128115200000001,2,1.2210021000355482,1.3710091999964789,6,0.3059083999833092,0.455857599969022,6,0.8532576999859884,1.0034140000352636,,,57.0,48.0,28483,60.0,
-77,-77,0,1,13,29,13,,,,,,,,,,,session,844.6633030999219,174.0,2.0,72.0,0.03128115200000001,4,0.9864903999259695,1.1189989999402314,0,0.5399638999952003,0.6567369000986218,0,0.30365510005503893,0.43523210007697344,,,72.0,57.0,28483,60.0,
77,77,-45,1,14,30,0,,,,,,,,,,,session,853.3875298999483,132.0,2.0,72.0,0.03128115200000001,5,1.4892075000097975,1.6226774000097066,1,1.1195294000208378,1.2497143000364304,6,1.4646458000643179,1.5989335000049323,,,51.0,51.0,28483,60.0,
77,77,90,1,15,31,3,,,,,,,,,,,session,863.2636944999686,150.0,2.0,72.0,0.03128115200000001,5,1.2214652999537066,1.3363650999963284,6,0.6243787999264896,0.7245927000185475,6,0.7049558999715373,0.8360999999567866,,,54.0,60.0,28483,60.0,
-77,-77,0,2,0,32,13,,,,,,,,,,,session,871.999783599982,162.0,2.0,72.0,0.03128115200000001,3,1.4395898999646306,1.5571319999871776,0,0.640581400017254,0.7467813000548631,1,0.8819383999798447,0.9652416000608355,,,66.0,57.0,28483,60.0,
77,77,90,2,1,33,3,,,,,,,,,,,session,881.4656028000172,156.0,2.0,72.0,0.03128115200000001,5,1.1713038999587297,1.3042132999980822,6,0.5350819999584928,0.6168486999813467,6,0.010983199928887188,0.012891799909994006,,,63.0,72.0,28483,60.0,
-77,-77,45,2,2,34,14,,,,,,,,,,,session,889.7096593999304,126.0,2.0,72.0,0.03128115200000001,3,0.3207260000053793,0.40286859998013824,6,1.2555301999673247,1.337934499955736,1,2.9229157000081614,3.0396753000095487,,,48.0,63.0,28483,60.0,
77,-77,90,2,3,35,11,,,,,,,,,,,session,899.8893539999845,168.0,2.0,72.0,0.03128115200000001,4,0.5468267999822274,0.6298210000386462,6,1.3182917000958696,1.4036675000097603,1,5.161329900030978,5.31070760008879,,,57.0,72.0,28483,60.0,
77,-77,45,2,4,36,10,,,,,,,,,,,session,914.2832597999368,162.0,2.0,72.0,0.03128115200000001,4,1.7217283999780193,1.82097410003189,1,0.738242799998261,0.9057665000436828,1,0.9074516999535263,1.0627776999026537,,,60.0,48.0,28483,60.0,
77,77,0,2,5,37,1,,,,,,,,,,,session,924.0165684999665,150.0,2.0,72.0,0.03128115200000001,5,1.2110386000713333,1.2934134000679478,0,0.012703399988822639,0.014617300010286272,6,0.01113719993736595,0.013057900010608137,,,51.0,66.0,28483,60.0,
-77,-77,90,2,6,38,15,,,,,,,,,,,session,931.6614961000159,144.0,2.0,72.0,0.03128115200000001,3,1.0079879000550136,1.141370699973777,6,0.3554657999193296,0.4548463999526575,6,0.011339099961332977,0.013266799971461296,,,51.0,72.0,28483,60.0,
-77,77,-45,2,7,39,4,,,,,,,,,,,session,939.1463930000318,168.0,2.0,72.0,0.03128115200000001,2,0.7002356000011787,0.7668381999246776,1,0.6236993999918923,0.6905513999518007,6,0.3993001999333501,0.46566420001909137,,,63.0,51.0,28483,60.0,
-77,77,-45,2,7,39,4,,,materials/instructions\12_break.png,947.2823153999634,1004.9661454999587,0,57.598495599930175,57.681844000006095,0.016419399995356798,57.689556399942376,,,,,,,,,,,,,,,,,,,,28483,60.0,
77,77,-45,2,8,40,0,,,,,,,,,,,session,1004.9819157000165,132.0,2.0,72.0,0.03128115200000001,5,2.2786830000113696,2.3617656000424176,6,0.5170568999601528,0.5618590000085533,1,0.7487237000605091,0.8607379000168294,,,54.0,63.0,28483,60.0,
-77,77,45,2,9,41,6,,,,,,,,,,,session,1014.3955000999849,180.0,2.0,72.0,0.03128115200000001,2,1.3037826999789104,1.4204820999875665,7,0.5821016000118107,0.6988149000098929,6,1.3533594999462366,1.4526494999881834,,,72.0,60.0,28483,60.0,
77,-77,0,2,10,42,9,,,,,,,,,,,session,1024.6167722999817,162.0,2.0,72.0,0.03128115200000001,2,4.354976000031456,4.471541200065985,7,0.011189699987880886,0.013109800056554377,0,0.5625024999026209,0.650575999985449,,,54.0,69.0,28483,60.0,
77,77,45,2,11,43,2,,,,,,,,,,,session,1035.9839512000326,126.0,2.0,72.0,0.03128115200000001,5,0.901691299979575,0.967381100053899,7,1.0341971999732777,1.1018872000277042,6,4.037736500031315,4.154512800043449,,,57.0,48.0,28483,60.0,
-77,-77,-45,2,12,44,12,,,,,,,,,,,session,1047.5184452999383,132.0,2.0,72.0,0.03128115200000001,2,10.161899499944411,10.311751200002618,6,0.4496658000862226,1.1334025000687689,0,0.011042699916288257,0.25047389999963343,,,69.0,48.0,28483,60.0,
-77,77,90,2,13,45,7,,,,,,,,,,,session,1064.8145597999683,168.0,2.0,72.0,0.03128115200000001,2,2.1051096000010148,2.219522299943492,6,1.073236900032498,1.1559688000706956,6,0.011017800075933337,0.01295370003208518,,,54.0,72.0,28483,60.0,
-77,77,0,2,14,46,5,,,,,,,,,,,session,1074.5347465999657,144.0,2.0,72.0,0.03128115200000001,2,0.3308969000354409,0.41952280001714826,0,0.011453900020569563,0.013350000022910535,6,0.011226700036786497,0.013156600063666701,,,57.0,51.0,28483,60.0,
77,-77,-45,2,15,47,8,,,,,,,,,,,session,1080.7720249999547,150.0,2.0,72.0,0.03128115200000001,4,0.40169349999632686,0.5351322999922559,1,0.5783141000429168,0.7126027999911457,6,3.14763010002207,3.2486435000319034,,,60.0,57.0,28483,60.0,
-77,77,45,3,0,48,6,,,,,,,,,,,session,1091.1680491999723,174.0,2.0,72.0,0.03128115200000001,2,3.1861420000204816,3.2861118000000715,6,0.8817820999538526,0.9542067999718711,6,0.19622009992599487,0.2793806999688968,,,51.0,51.0,28483,60.0,
77,77,45,3,1,49,2,,,,,,,,,,,session,1101.7341473000124,180.0,2.0,72.0,0.03128115200000001,5,0.7520258000586182,0.803180200047791,7,0.7049859000835568,0.7900634000543505,6,0.6843893999466673,0.7497456999262795,,,69.0,48.0,28483,60.0,
77,77,-45,3,2,50,0,,,,,,,,,,,session,1110.5992741999216,162.0,2.0,72.0,0.03128115200000001,5,3.1556799999671057,3.2244076998904347,1,0.4220175000373274,0.5053769000805914,6,0.20001439994666725,0.24965439992956817,,,54.0,54.0,28483,60.0,
-77,-77,90,3,3,51,15,,,,,,,,,,,session,1120.5239771000342,174.0,2.0,72.0,0.03128115200000001,3,1.6437270999886096,1.7576470000203699,6,0.7229399000061676,0.8057617000304163,6,1.1980251999339089,1.2815316999331117,,,51.0,48.0,28483,60.0,
-77,77,90,3,4,52,7,,,,,,,,,,,session,1131.015276500024,132.0,2.0,72.0,0.03128115200000001,2,2.1528471999336034,2.253010699991137,6,0.8395642000250518,0.9563870000420138,1,0.5342304999940097,0.6339681999525055,,,54.0,48.0,28483,60.0,
77,77,90,3,5,53,3,,,,,,,,,,,session,1140.207813899964,126.0,2.0,72.0,0.03128115200000001,5,1.385340900043957,1.42876229993999,6,2.4853080000029877,2.569793700007722,1,0.011042900034226477,0.012945700087584555,,,66.0,54.0,28483,60.0,
77,-77,0,3,6,54,9,,,,,,,,,,,session,1149.9091383999912,150.0,2.0,72.0,0.03128115200000001,4,1.257214599987492,1.373342299950309,0,0.35351389995776117,0.5039598000003025,0,0.011134999920614064,0.14837319997604936,,,48.0,54.0,28483,60.0,
77,-77,45,3,7,55,10,,,,,,,,,,,session,1157.5847821999341,144.0,2.0,72.0,0.03128115200000001,4,1.2335372000234202,1.4002930000424385,7,2.1661604000255466,2.2681795000098646,1,5.995952499913983,6.095919099985622,,,51.0,66.0,28483,60.0,
-77,77,-45,3,8,56,4,,,,,,,,,,,session,1173.1813938999549,180.0,2.0,72.0,0.03128115200000001,2,2.334693699958734,2.418066199985333,1,0.6364310999633744,0.7363739999709651,1,1.3010547999292612,1.451106599997729,,,51.0,72.0,28483,60.0,
77,-77,-45,3,9,57,8,,,,,,,,,,,session,1184.28987149999,156.0,2.0,72.0,0.03128115200000001,5,1.8152659999905154,1.9486625000135973,6,0.011394100030884147,0.013251300086267292,0,0.8161065999884158,0.933107899967581,,,60.0,57.0,28483,60.0,
-77,-77,-45,3,10,58,12,,,,,,,,,,,session,1193.2669259000104,150.0,2.0,72.0,0.03128115200000001,3,0.02929149998817593,0.18065390002448112,1,1.8358177000191063,1.9348839999875054,1,0.0648269000230357,0.16611420002300292,,,63.0,60.0,28483,60.0,
77,-77,90,3,11,59,11,,,,,,,,,,,session,1201.5679264999926,162.0,2.0,72.0,0.03128115200000001,5,2.588453199947253,2.655784699949436,7,0.011570099974051118,0.035815499955788255,0,0.11497400002554059,0.215974299935624,,,63.0,48.0,28483,60.0,
77,-77,90,3,11,59,11,,,materials/instructions\12_break.png,1210.5034242999973,1310.6490269999485,0,100.0599368000403,100.14326620008796,0.022706500021740794,100.15092939999886,,,,,,,,,,,,,,,,,,,,28483,60.0,
-77,-77,45,3,12,60,14,,,,,,,,,,,session,1310.6645914999535,162.0,2.0,72.0,0.03128115200000001,3,0.9126759999198839,0.9959763999795541,7,0.4438557999674231,0.5088405000278726,1,2.6515454999171197,2.73586819996126,,,51.0,72.0,28483,60.0,
-77,-77,0,3,13,61,13,,,,,,,,,,,session,1321.1096726999385,150.0,2.0,72.0,0.03128115200000001,3,0.6466269000666216,0.7466754000633955,0,0.5046880000736564,0.6039468999952078,6,0.010877199936658144,0.08187989995349199,,,57.0,66.0,28483,60.0,
77,77,0,3,14,62,1,,,,,,,,,,,session,1329.1323023999576,132.0,2.0,72.0,0.03128115200000001,5,0.36743129999376833,0.4343671000096947,0,0.8728073999518529,0.9562250999733806,6,0.011444300063885748,0.013406400103121996,,,69.0,66.0,28483,60.0,
-77,77,0,3,15,63,5,,,,,,,,,,,session,1336.4472922999412,132.0,2.0,72.0,0.03128115200000001,2,0.03585059999022633,0.12014969997107983,0,0.011475499952211976,0.013379400013945997,6,0.01098899997305125,0.012880399939604104,,,60.0,69.0,28483,60.0,
77,-77,90,4,0,64,11,,,,,,,,,,,session,1342.4053061000304,168.0,2.0,72.0,0.03128115200000001,4,0.46298760001081973,0.5629806999349967,6,0.3997866000281647,0.4672846000175923,1,0.2641004999168217,0.36626389995217323,,,48.0,57.0,28483,60.0,
-77,-77,90,4,1,65,15,,,,,,,,,,,session,1350.4523139999947,138.0,2.0,72.0,0.03128115200000001,3,0.3347479000221938,0.41716539999470115,6,1.2911632999312133,1.4079152999911457,1,5.455456999945454,5.521946700057015,,,57.0,72.0,28483,60.0,
-77,-77,-45,4,2,66,12,,,,,,,,,,,session,1363.6909417000134,162.0,2.0,72.0,0.03128115200000001,3,0.3034291999647394,0.38917149999178946,1,1.3180877000559121,1.38491340004839,1,8.574048100039363,8.690796200069599,,,69.0,69.0,28483,60.0,
77,77,-45,4,3,67,0,,,,,,,,,,,session,1381.156287599937,162.0,2.0,72.0,0.03128115200000001,5,1.1964023999171332,1.2790142999729142,1,1.0637245000107214,1.2012577999848872,0,3.7020222999854013,3.8025395999429747,,,66.0,72.0,28483,60.0,
77,77,90,4,4,68,3,,,,,,,,,,,session,1393.886671599932,168.0,2.0,72.0,0.03128115200000001,5,1.1361923000076786,1.2029168999288231,6,2.4575252999784425,2.540152700035833,1,0.010977800004184246,0.012893900042399764,,,51.0,63.0,28483,60.0,
-77,-77,0,4,5,69,13,,,,,,,,,,,session,1403.795288800029,168.0,2.0,72.0,0.03128115200000001,3,0.7575870000291616,0.8567509000422433,0,0.5666359000606462,0.6333106000674888,1,0.01100379996933043,0.012925199931487441,,,69.0,69.0,28483,60.0,
77,77,0,4,6,70,1,,,,,,,,,,,session,1411.8644364000065,144.0,2.0,72.0,0.03128115200000001,5,1.5395244000246748,1.6226975000463426,0,0.49941790010780096,0.6165611000033095,1,0.010998599929735065,0.03149699990171939,,,72.0,60.0,28483,60.0,
77,-77,-45,4,7,71,8,,,,,,,,,,,session,1420.1811674999772,162.0,2.0,72.0,0.03128115200000001,4,0.28346379997674376,0.36673020001035184,1,0.6390523000154644,0.7224721000529826,0,0.011159199988469481,0.013058300013653934,,,72.0,69.0,28483,60.0,
77,-77,0,4,8,72,9,,,,,,,,,,,session,1427.7725832000142,156.0,2.0,72.0,0.03128115200000001,4,0.05863740004133433,0.16052530007436872,0,0.011496399994939566,0.013316399999894202,1,0.011145500000566244,0.013074400019831955,,,60.0,48.0,28483,60.0,
-77,-77,45,4,9,73,14,,,,,,,,,,,session,1433.9313987999922,168.0,2.0,72.0,0.03128115200000001,5,1.5176394999725744,1.6151034999638796,6,0.012010699952952564,0.013832399970851839,0,0.5969663999276236,0.7142850999953225,,,63.0,69.0,28483,60.0,
-77,77,0,4,10,74,5,,,,,,,,,,,session,1442.71684369992,156.0,2.0,72.0,0.03128115200000001,2,2.8085442999145016,2.875342599931173,0,0.30059180001262575,0.4005804000189528,1,0.12005140003748238,0.1866830000653863,,,54.0,66.0,28483,60.0,
77,-77,45,4,11,75,10,,,,,,,,,,,session,1452.2243776000105,150.0,2.0,72.0,0.03128115200000001,4,1.6265379000687972,1.6624617000343278,7,1.8887348000425845,1.9712579000042751,1,0.01149010006338358,0.013422999996691942,,,48.0,63.0,28483,60.0,
-77,77,45,4,12,76,6,,,,,,,,,,,session,1462.2150090999203,150.0,2.0,72.0,0.03128115200000001,2,0.23472489998675883,0.318094199988991,7,0.506792200030759,0.5882097999565303,1,1.1378612000262365,1.221225899993442,,,48.0,63.0,28483,60.0,
-77,77,-45,4,13,77,4,,,,,,,,,,,session,1470.1396684999345,180.0,2.0,72.0,0.03128115200000001,2,0.5040964999934658,0.6363981000613421,1,0.46898930007591844,0.6467034000670537,1,0.06368440005462617,0.24982449994422495,,,48.0,51.0,28483,60.0,
-77,77,90,4,14,78,7,,,,,,,,,,,session,1477.7697183999699,174.0,2.0,72.0,0.03128115200000001,2,0.7872604000149295,0.886904300074093,6,0.011675199959427118,0.013625499908812344,6,0.011365900048986077,0.013283399981446564,,,66.0,48.0,28483,60.0,
77,77,45,4,15,79,2,,,,,,,,,,,session,1485.0530863000313,168.0,2.0,72.0,0.03128115200000001,5,0.5367877000244334,0.586815599934198,7,1.2785563999786973,1.3442868000129238,1,0.28396549995522946,0.3685786999994889,,,48.0,54.0,28483,60.0,
77,77,45,4,15,79,2,,,materials/instructions\12_break.png,1493.3202677000081,1536.004393799929,0,42.58191639999859,42.681904900004156,0.02035290002822876,42.68773720005993,,,,,,,,,,,,,,,,,,,,28483,60.0,
-77,77,45,5,0,80,6,,,,,,,,,,,session,1536.01773089997,150.0,2.0,72.0,0.03128115200000001,2,0.7569844999816269,0.8385709000285715,7,0.9244873999850824,1.02520120004192,1,0.010941600077785552,0.09668770001735538,,,57.0,57.0,28483,60.0,
-77,77,0,5,1,81,5,,,,,,,,,,,session,1543.8674902999774,156.0,2.0,72.0,0.03128115200000001,2,1.7850543999811634,1.8717011999106035,0,0.011269800015725195,0.013129499973729253,1,0.01107779995072633,0.012974999961443245,,,72.0,72.0,28483,60.0,
-77,-77,45,5,2,82,14,,,,,,,,,,,session,1552.332170699956,144.0,2.0,72.0,0.03128115200000001,3,1.3887780000222847,1.5224240000825375,7,0.5553778999019414,0.6553896999685094,1,0.01120229996740818,0.051618200028315187,,,60.0,69.0,28483,60.0,
77,-77,90,5,3,83,11,,,,,,,,,,,session,1560.5554646999808,150.0,2.0,72.0,0.03128115200000001,4,0.3123961000237614,0.41261569992639124,6,0.6348336000228301,0.7198607999598607,1,0.011102499905973673,0.013182799913920462,,,57.0,72.0,28483,60.0,
77,-77,45,5,4,84,10,,,,,,,,,,,session,1567.8440427000169,162.0,2.0,72.0,0.03128115200000001,4,0.300881200004369,0.43426619993988425,7,1.4846606999635696,1.5847855999600142,1,0.011068299994803965,0.013008599984459579,,,63.0,54.0,28483,60.0,
77,77,0,5,5,85,1,,,,,,,,,,,session,1575.9756974999327,174.0,2.0,72.0,0.03128115200000001,5,1.1239087000722066,1.206729800091125,0,0.011529600014910102,0.013412700034677982,1,0.011068699997849762,0.012982200016267598,,,54.0,57.0,28483,60.0,
-77,-77,0,5,6,86,13,,,,,,,,,,,session,1583.3970779000083,174.0,2.0,72.0,0.03128115200000001,3,0.011034199967980385,0.10567119996994734,0,0.011413299944251776,0.013305399916134775,1,1.1386200999841094,1.3054246000247076,,,69.0,69.0,28483,60.0,
-77,-77,-45,5,7,87,12,,,,,,,,,,,session,1591.9672080000164,132.0,2.0,72.0,0.03128115200000001,3,0.1615124000236392,0.3637521000346169,1,1.1018816999858245,1.2022240000078455,0,0.8847211999818683,0.9514892000006512,,,60.0,66.0,28483,60.0,
-77,77,-45,5,8,88,4,,,,,,,,,,,session,1600.236942699994,132.0,2.0,72.0,0.03128115200000001,2,1.300400400068611,1.3840379000175744,1,3.457234999979846,3.526054099900648,1,0.2760138000594452,0.34272379998583347,,,57.0,57.0,28483,60.0,
-77,77,90,5,9,89,7,,,,,,,,,,,session,1611.0169003999326,174.0,2.0,72.0,0.03128115200000001,5,1.6869552000425756,1.7849322999827564,6,0.011468300013802946,0.013387700077146292,0,0.6683117999928072,0.7680383999831975,,,69.0,60.0,28483,60.0,
77,77,45,5,10,90,2,,,,,,,,,,,session,1620.103817999945,138.0,2.0,72.0,0.03128115200000001,4,1.5545156999723986,1.686840599984862,6,1.2701516000088304,1.3901687000179663,0,0.4641195998992771,0.6806514000054449,,,72.0,66.0,28483,60.0,
77,77,-45,5,11,91,0,,,,,,,,,,,session,1629.927838100004,126.0,2.0,72.0,0.03128115200000001,5,0.8468417000258341,0.9140857000602409,1,2.754650400020182,2.836830700049177,1,0.38541230000555515,0.4521978000411764,,,66.0,54.0,28483,60.0,
77,77,90,5,12,92,3,,,,,,,,,,,session,1640.2344381000148,144.0,2.0,72.0,0.03128115200000001,5,1.219461900065653,1.3030704000266269,6,2.675570399966091,2.741224700002931,1,0.40378659998532385,0.47099320008419454,,,48.0,54.0,28483,60.0,
-77,-77,90,5,13,93,15,,,,,,,,,,,session,1650.294383200002,156.0,2.0,72.0,0.03128115200000001,3,0.5781560000032187,0.6634342999896035,6,1.5037108999677002,1.6037657000124454,1,1.2675341001013294,1.3681352999992669,,,57.0,69.0,28483,60.0,
77,-77,0,5,14,94,9,,,,,,,,,,,session,1660.6018473999575,180.0,2.0,72.0,0.03128115200000001,4,2.5006002000300214,2.6185647000093013,0,0.7043568000663072,0.7554192000534385,1,0.011554499971680343,0.013506299932487309,,,57.0,54.0,28483,60.0,
77,-77,-45,5,15,95,8,,,,,,,,,,,session,1670.2745624999516,126.0,2.0,72.0,0.03128115200000001,5,1.6615833999821916,1.77175359998364,7,0.011608100030571222,0.033169499947689474,0,0.08716180000919849,0.18663599994033575,,,60.0,57.0,28483,60.0,
77,77,-45,6,0,96,0,,,,,,,,,,,session,1677.7877772999927,126.0,2.0,72.0,0.03128115200000001,5,0.9764437000267208,1.0423662000102922,1,1.0703215999528766,1.1528716000029817,1,6.853970299940556,6.955929999938235,,,57.0,57.0,28483,60.0,
77,77,45,6,1,97,2,,,,,,,,,,,session,1692.4096474000253,132.0,2.0,72.0,0.03128115200000001,5,2.3321157000027597,2.465223200037144,1,2.0188314000843093,2.2879439999815077,0,0.3803285000612959,0.6136919000418857,,,57.0,54.0,28483,60.0,
-77,77,0,6,2,98,5,,,,,,,,,,,session,1703.284331599949,138.0,2.0,72.0,0.03128115200000001,4,0.9168139999965206,0.9191804000874981,6,2.6066854000091553,2.7401354000903666,0,0.8010719999438152,0.9680514000356197,,,69.0,48.0,28483,60.0,
-77,-77,0,6,3,99,13,,,,,,,,,,,session,1713.607083400013,132.0,2.0,72.0,0.03128115200000001,3,1.4193968999898061,1.5535514000803232,0,2.6238067999947816,2.7565828999504447,1,0.33323789993301034,0.44981359993107617,,,72.0,60.0,28483,60.0,
-77,-77,0,6,3,99,13,,,materials/instructions\12_break.png,1724.2449428000255,1758.9233419999946,0,34.525593300000764,34.67567280004732,0.021827499964274466,34.683268500026315,,,,,,,,,,,,,,,,,,,,28483,60.0,
77,77,90,6,4,100,3,,,,,,,,,,,session,1758.93833299994,138.0,2.0,72.0,0.03128115200000001,5,1.2447398999938741,1.3337479999754578,6,1.8019445999525487,1.885426599998027,0,0.8470295999431983,1.0309354000492021,,,69.0,51.0,28483,60.0,
-77,77,90,6,5,101,7,,,,,,,,,,,session,1768.9522724000271,138.0,2.0,72.0,0.03128115200000001,2,0.33660090004559606,0.46816100005526096,6,1.7724931999109685,1.8399775999132544,1,0.30445239995606244,0.43614180001895875,,,66.0,69.0,28483,60.0,
-77,-77,45,6,6,102,14,,,,,,,,,,,session,1777.688242299948,150.0,2.0,72.0,0.03128115200000001,4,2.8058984000235796,2.889525600010529,1,0.7358186999335885,0.8022592000197619,0,0.35209339996799827,0.4640451999148354,,,60.0,51.0,28483,60.0,
-77,77,45,6,7,103,6,,,,,,,,,,,session,1787.6685628999257,150.0,2.0,72.0,0.03128115200000001,2,0.33530210005119443,0.43550739996135235,7,1.3614718999015167,1.4115554000018165,0,0.48251610004808754,0.5662089000688866,,,60.0,72.0,28483,60.0,
77,-77,45,6,8,104,10,,,,,,,,,,,session,1796.2359261999372,144.0,2.0,72.0,0.03128115200000001,4,0.01138159993570298,0.11427359993103892,1,0.35802510008215904,0.4739616001024842,0,0.3366345999529585,0.5181514999130741,,,48.0,63.0,28483,60.0,
77,77,0,6,9,105,1,,,,,,,,,,,session,1803.0434914999641,162.0,2.0,72.0,0.03128115200000001,5,0.010967800044454634,0.012885699979960918,0,0.011423599906265736,0.09758890001103282,1,0.011200599954463542,0.06811919994652271,,,57.0,63.0,28483,60.0,
77,-77,-45,6,10,106,8,,,,,,,,,,,session,1809.4022285999963,168.0,2.0,72.0,0.03128115200000001,4,0.6513081999728456,0.7507349000079557,1,1.5193862000014633,1.6031548000173643,6,0.011321899946779013,0.01319939992390573,,,69.0,66.0,28483,60.0,
-77,77,-45,6,11,107,4,,,,,,,,,,,session,1818.2383262999356,162.0,2.0,72.0,0.03128115200000001,2,0.32205489999614656,0.42042800004128367,1,0.5587144999299198,0.6418691999278963,6,0.739918400067836,0.8417065000394359,,,51.0,63.0,28483,60.0,
77,-77,90,6,12,108,11,,,,,,,,,,,session,1826.1762830999214,126.0,2.0,72.0,0.03128115200000001,4,0.9714868000010028,1.089838800020516,7,2.3536957000615075,2.420847599976696,1,0.011047799955122173,0.012951500015333295,,,63.0,69.0,28483,60.0,
-77,-77,-45,6,13,109,12,,,,,,,,,,,session,1835.53040779999,150.0,2.0,72.0,0.03128115200000001,3,0.36968729994259775,0.5363618999253958,1,0.5131348000140861,0.6455447000917047,1,2.842110599973239,2.94207909994293,,,54.0,72.0,28483,60.0,
77,-77,0,6,14,110,9,,,,,,,,,,,session,1845.6930135999573,174.0,2.0,72.0,0.03128115200000001,5,1.2269681999459863,1.3113235998898745,6,0.8627098998986185,0.9347699999343604,0,0.24603049992583692,0.4126936999382451,,,60.0,60.0,28483,60.0,
-77,-77,90,6,15,111,15,,,,,,,,,,,session,1854.7227638999466,168.0,2.0,72.0,0.03128115200000001,3,1.2021181000163779,1.3020800999365747,6,0.34721599996555597,0.4805914000608027,1,0.5152953000506386,0.6821379000321031,,,66.0,66.0,28483,60.0,
77,77,0,7,0,112,1,,,,,,,,,,,session,1863.6544012000086,180.0,2.0,72.0,0.03128115200000001,5,0.8725965999765322,0.9535443999338895,0,1.6175455000484362,1.7184709999710321,1,0.4021500999806449,0.5270880999742076,,,51.0,72.0,28483,60.0,
-77,-77,-45,7,1,113,12,,,,,,,,,,,session,1873.3535066000186,150.0,2.0,72.0,0.03128115200000001,3,0.89663820003625,1.0799772000173107,6,1.1162400000030175,1.3152112000389025,1,0.01103940000757575,0.23464609996881336,,,54.0,69.0,28483,60.0,
77,-77,0,7,2,114,9,,,,,,,,,,,session,1882.5888912000228,132.0,2.0,72.0,0.03128115200000001,4,1.8353411999996752,1.9354316999670118,0,0.011386900092475116,0.013319500023499131,1,0.011452100006863475,0.01338790007866919,,,60.0,72.0,28483,60.0,
77,-77,45,7,3,115,10,,,,,,,,,,,session,1890.4054620999377,132.0,2.0,72.0,0.03128115200000001,4,2.429933700012043,2.4966628999682143,7,0.7515355000505224,0.8635171001078561,6,0.38253390009049326,0.46553749998565763,,,48.0,72.0,28483,60.0,
77,77,-45,7,4,116,0,,,,,,,,,,,session,1899.8869926999323,162.0,2.0,72.0,0.03128115200000001,5,0.21320989995729178,0.3467164000030607,1,3.2076673000119627,3.42572579998523,1,5.455346400034614,5.789815800031647,,,48.0,63.0,28483,60.0,
-77,-77,90,7,5,117,15,,,,,,,,,,,session,1915.4446865000064,144.0,2.0,72.0,0.03128115200000001,4,2.9862146000377834,3.1861158000538126,0,1.5352638000622392,1.7724658000515774,0,0.7659267999697477,0.9159869999857619,,,48.0,63.0,28483,60.0,
77,-77,90,7,6,118,11,,,,,,,,,,,session,1927.4193607999478,174.0,2.0,72.0,0.03128115200000001,4,0.7563326999079436,0.9063057999592274,6,1.5559232999803498,1.6726329999510199,0,0.6720410999841988,0.8198947000782937,,,51.0,60.0,28483,60.0,
77,77,45,7,7,119,2,,,,,,,,,,,session,1937.0102223999565,138.0,2.0,72.0,0.03128115200000001,5,0.01101409993134439,0.012896499945782125,7,2.253106900025159,2.3829539000289515,1,0.935074400040321,1.019250600016676,,,60.0,57.0,28483,60.0,
77,77,45,7,7,119,2,,,materials/instructions\12_break.png,1946.485585300019,2020.1548643999267,0,73.56754149997141,73.6671887000557,0.01874520001001656,73.67473009997047,,,,,,,,,,,,,,,,,,,,28483,60.0,
-77,-77,0,7,8,120,13,,,,,,,,,,,session,2020.1705267999787,144.0,2.0,72.0,0.03128115200000001,5,2.4940591000486165,2.577467199997045,0,0.7628292000154033,0.9292725999839604,0,1.7153443999122828,1.9246834999648854,,,51.0,57.0,28483,60.0,
-77,77,90,7,9,121,7,,,,,,,,,,,session,2031.2638383000158,126.0,2.0,72.0,0.03128115200000001,2,4.171398799982853,4.302616699947976,6,1.5870169999543577,1.786124899983406,6,3.923327700002119,4.089226000010967,,,63.0,72.0,28483,60.0,
-77,77,45,7,10,122,6,,,,,,,,,,,session,2047.244121399941,162.0,2.0,72.0,0.03128115200000001,2,0.133405200089328,0.33353689999785274,7,1.9191831999924034,2.002572999917902,6,3.2552577999886125,3.455492499982938,,,48.0,72.0,28483,60.0,
-77,77,-45,7,11,123,4,,,,,,,,,,,session,2059.5898775999667,168.0,2.0,72.0,0.03128115200000001,2,0.7998463000403717,0.9835744000738487,1,0.9093599999323487,1.109622500021942,1,3.467705399962142,3.5836513000540435,,,69.0,72.0,28483,60.0,
77,-77,-45,7,12,124,8,,,,,,,,,,,session,2071.846090200008,174.0,2.0,72.0,0.03128115200000001,4,1.1940917000174522,1.413353299954906,1,1.3188710999675095,1.4188212999142706,6,3.716973099973984,3.9180310999508947,,,72.0,54.0,28483,60.0,
77,77,90,7,13,125,3,,,,,,,,,,,session,2085.608419899945,138.0,2.0,72.0,0.03128115200000001,5,2.359114699997008,2.524469199939631,6,1.352410800056532,1.5200780000304803,0,0.4034825999988243,0.5511661000782624,,,72.0,51.0,28483,60.0,
-77,77,0,7,14,126,5,,,,,,,,,,,session,2096.019186099991,150.0,2.0,72.0,0.03128115200000001,3,3.553543100017123,3.737046099966392,0,1.4675443000160158,1.651056700036861,0,1.4209717999910936,1.4893091999692842,,,60.0,54.0,28483,60.0,
-77,-77,45,7,15,127,14,,,,,,,,,,,session,2108.9585813999875,132.0,2.0,72.0,0.03128115200000001,3,0.5010666999733075,0.6679077999433503,7,1.9717356000328436,2.1051609000423923,1,2.0109433999750763,2.2431236000265926,,,48.0,51.0,28483,60.0,
-77,-77,45,8,0,128,14,,,,,,,,,,,session,2119.269947899971,138.0,2.0,72.0,0.03128115200000001,3,0.8209026999538764,0.971026899991557,7,1.4165409000124782,1.8318780000554398,6,1.6356233999831602,2.1175446999259293,,,57.0,69.0,28483,60.0,
-77,-77,90,8,1,129,15,,,,,,,,,,,session,2130.056314699934,168.0,2.0,72.0,0.03128115200000001,3,1.2764555000467226,1.4590381000889465,6,3.1810674999142066,3.330448399996385,1,7.784011299954727,8.015098199946806,,,54.0,54.0,28483,60.0,
-77,-77,0,8,2,130,13,,,,,,,,,,,session,2148.9220035999315,168.0,2.0,72.0,0.03128115200000001,3,1.1959325999487191,1.2793908000458032,0,0.9547449999954551,1.0547382000368088,1,0.2744270999683067,0.3558956999331713,,,51.0,48.0,28483,60.0,
-77,77,45,8,3,131,6,,,,,,,,,,,session,2157.512235400034,174.0,2.0,72.0,0.03128115200000001,2,0.42815349996089935,0.4950154999969527,7,1.7654068999690935,1.917023199959658,1,1.531997699989006,1.6991443000733852,,,51.0,51.0,28483,60.0,
77,77,45,8,4,132,2,,,,,,,,,,,session,2167.887441799976,168.0,2.0,72.0,0.03128115200000001,5,1.1994678999762982,1.399374600034207,7,7.645828699925914,7.778250799980015,1,1.9929861000273377,2.059630100033246,,,66.0,57.0,28483,60.0,
-77,-77,-45,8,5,133,12,,,,,,,,,,,session,2185.4366320000263,180.0,2.0,72.0,0.03128115200000001,4,0.8022049000719562,0.969121600035578,6,0.01167349994648248,0.3283028999576345,0,0.5666333999251947,1.0336071000201628,,,66.0,63.0,28483,60.0,
77,77,90,8,6,134,3,,,,,,,,,,,session,2194.3724867999554,132.0,2.0,72.0,0.03128115200000001,5,0.6169089999748394,0.9179620000068098,6,1.8389643999980763,1.972402899991721,1,1.3710107000079006,1.520549300010316,,,51.0,63.0,28483,60.0,
77,77,0,8,7,135,1,,,,,,,,,,,session,2204.3309907999355,174.0,2.0,72.0,0.03128115200000001,5,3.579798100050539,3.677913499996066,6,0.012038500048220158,0.20481720007956028,1,2.5344628000166267,2.6512039999943227,,,72.0,48.0,28483,60.0,
77,77,-45,8,8,136,0,,,,,,,,,,,session,2217.8898737999843,126.0,2.0,72.0,0.03128115200000001,5,1.35207070002798,1.4188283999683335,1,1.7706723000155762,1.88688440003898,1,0.5326471999287605,0.6977925999090075,,,69.0,63.0,28483,60.0,
-77,77,0,8,9,137,5,,,,,,,,,,,session,2227.641100400011,150.0,2.0,72.0,0.03128115200000001,2,0.6610396999167278,0.8276153999613598,0,0.38546659995336086,0.523411399917677,1,7.5415507000871,7.709233800065704,,,66.0,72.0,28483,60.0,
-77,77,-45,8,10,138,4,,,,,,,,,,,session,2243.379677299992,168.0,2.0,72.0,0.03128115200000001,5,4.281432999996468,4.502072100061923,7,0.08255279995501041,0.46585769997909665,0,0.364948199945502,0.8141873999265954,,,63.0,63.0,28483,60.0,
77,-77,-45,8,11,139,8,,,,,,,,,,,session,2255.521070900024,132.0,2.0,72.0,0.03128115200000001,3,0.010912399971857667,0.012843100004829466,1,2.7399361999705434,2.742553499992937,1,0.011290099937468767,0.013182499911636114,,,48.0,54.0,28483,60.0,
77,-77,-45,8,11,139,8,,,materials/instructions\12_break.png,2263.6697220000206,2323.454590999987,0,59.632759700063616,59.78286320006009,0.02349689998663962,59.79020719998516,,,,,,,,,,,,,,,,,,,,28483,60.0,
77,-77,90,8,12,140,11,,,,,,,,,,,session,2323.4705221999902,132.0,2.0,72.0,0.03128115200000001,4,1.527562899980694,1.8110567999538034,7,1.3273132999893278,1.527044799993746,0,0.10020129999611527,0.3346481000771746,,,54.0,57.0,28483,60.0,
-77,77,90,8,13,141,7,,,,,,,,,,,session,2332.6441591000184,144.0,2.0,72.0,0.03128115200000001,2,1.201728800078854,1.3423552000895143,6,1.7279286999255419,1.8490113998996094,1,0.23512600001413375,0.46663969999644905,,,57.0,69.0,28483,60.0,
77,-77,45,8,14,142,10,,,,,,,,,,,session,2342.2550298999995,150.0,2.0,72.0,0.03128115200000001,4,1.2210840000770986,1.4377988000633195,7,0.6545565000269562,0.9552868000464514,1,5.974563900032081,6.676005600020289,,,63.0,66.0,28483,60.0,
77,-77,0,8,15,143,9,,,,,,,,,,,session,2357.4140044000233,156.0,2.0,72.0,0.03128115200000001,4,0.33371520007494837,0.6125329000642523,0,0.55313280003611,0.836249400046654,1,0.349298799992539,0.6162335999542847,,,48.0,69.0,28483,60.0,
77,-77,90,9,0,144,11,,,,,,,,,,,session,2366.088463000022,168.0,2.0,72.0,0.03128115200000001,4,0.8972667000489309,1.0640954000409693,6,1.987987499916926,2.506690099951811,1,1.769811199977994,2.0197125000413507,,,60.0,60.0,28483,60.0,
-77,77,45,9,1,145,6,,,,,,,,,,,session,2377.9282331999857,126.0,2.0,72.0,0.03128115200000001,2,1.1174248999450356,1.3087188999634236,7,1.5472230999730527,1.7275495000649244,1,2.2013848000206053,2.351506600040011,,,48.0,51.0,28483,60.0,
77,77,-45,9,2,146,0,,,,,,,,,,,session,2388.5229024,150.0,2.0,72.0,0.03128115200000001,5,1.5518879001028836,1.7009533001109958,6,0.01143640000373125,0.013335400028154254,0,0.011268500005826354,0.013349600019864738,,,66.0,72.0,28483,60.0,
77,-77,0,9,3,147,9,,,,,,,,,,,session,2396.52005079994,144.0,2.0,72.0,0.03128115200000001,3,0.9185763999121264,1.1516107999486849,6,1.9968030999880284,2.2769707000115886,0,0.9483594000339508,1.1985465000616387,,,60.0,72.0,28483,60.0,
77,77,45,9,4,148,2,,,,,,,,,,,session,2407.2054338000016,126.0,2.0,72.0,0.03128115200000001,5,0.3848877000855282,0.5682215000269935,7,1.770629300037399,1.870651499950327,1,0.7862593000754714,0.8717434999998659,,,54.0,51.0,28483,60.0,
-77,-77,0,9,5,149,13,,,,,,,,,,,session,2415.8257758999243,144.0,2.0,72.0,0.03128115200000001,3,3.720999400014989,3.9213701999979094,0,0.011742100003175437,0.08547080005519092,6,2.8339538000291213,3.0292675000382587,,,72.0,60.0,28483,60.0,
77,-77,-45,9,6,150,8,,,,,,,,,,,session,2428.9058185999747,126.0,2.0,72.0,0.03128115200000001,3,1.2107084000017494,1.3941639000549912,7,0.4707472000736743,0.6206871999893337,0,0.7176793999969959,0.8836251000175253,,,66.0,51.0,28483,60.0,
-77,-77,45,9,7,151,14,,,,,,,,,,,session,2437.3071843999205,144.0,2.0,72.0,0.03128115200000001,4,1.8010483999969438,1.9996619999874383,1,0.7107910000486299,0.8607452000724152,0,0.716666099964641,0.8168683999683708,,,48.0,54.0,28483,60.0,
-77,77,0,9,8,152,5,,,,,,,,,,,session,2446.530853700009,174.0,2.0,72.0,0.03128115200000001,2,0.5110749999294057,0.6770610000239685,0,0.011411799932830036,0.2836986999027431,1,0.011354400077834725,0.3199163000099361,,,60.0,63.0,28483,60.0,
-77,-77,90,9,9,153,15,,,,,,,,,,,session,2454.7565145000117,162.0,2.0,72.0,0.03128115200000001,5,1.8983038000296801,2.0483642000472173,7,0.07488349999766797,0.2731455999892205,0,0.010965100023895502,0.012826599995605648,,,48.0,60.0,28483,60.0,
77,-77,45,9,10,154,10,,,,,,,,,,,session,2463.0388577999547,126.0,2.0,72.0,0.03128115200000001,4,0.6007537000114098,0.7842509000329301,6,0.40661439998075366,0.5065860999748111,0,0.6042170999571681,0.7737915000179783,,,54.0,51.0,28483,60.0,
77,77,90,9,11,155,3,,,,,,,,,,,session,2470.403286900022,162.0,2.0,72.0,0.03128115200000001,5,1.304111099918373,1.4369221999077126,6,1.572158299968578,1.7722288999939337,1,0.23066220001783222,0.3640777999535203,,,69.0,66.0,28483,60.0,
-77,77,-45,9,12,156,4,,,,,,,,,,,session,2480.941022199928,162.0,2.0,72.0,0.03128115200000001,2,0.20409450004808605,0.35431900003459305,1,3.1554223999846727,3.3064569999696687,1,4.807578199892305,4.9863306999905035,,,69.0,63.0,28483,60.0,
77,77,0,9,13,157,1,,,,,,,,,,,session,2495.939415700035,162.0,2.0,72.0,0.03128115200000001,5,1.3817370999604464,1.4818772999569774,0,1.4669715999625623,1.5835757999448106,1,0.519628299982287,0.6195096999872476,,,54.0,54.0,28483,60.0,
-77,-77,-45,9,14,158,12,,,,,,,,,,,session,2505.591645199922,138.0,2.0,72.0,0.03128115200000001,3,0.7033022999530658,0.8871564000146464,1,3.0401641000062227,3.231023499974981,1,1.0798225000035018,1.3465524000348523,,,51.0,63.0,28483,60.0,
-77,77,90,9,15,159,7,,,,,,,,,,,session,2516.7094581000274,126.0,2.0,72.0,0.03128115200000001,2,1.0329199000261724,1.150169000029564,6,0.011443100054748356,0.21784579998347908,1,0.5200099999783561,0.7183697000145912,,,66.0,51.0,28483,60.0,
-77,77,90,9,15,159,7,,,materials/instructions\12_break.png,2524.322806400014,2576.6943456999725,0,52.219332900014706,52.36945120000746,0.01841299992520362,52.37735199998133,,,,,,,,,,,,,,,,,,,,28483,60.0,
77,77,90,10,0,160,3,,,,,,,,,,,session,2576.710313400021,144.0,2.0,72.0,0.03128115200000001,5,1.7308872999856248,1.8994138999842107,7,0.011575500015169382,0.013494800077751279,0,0.8707142000785097,0.011172100086696446,,,57.0,51.0,28483,60.0,
77,77,45,10,1,161,2,,,,,,,,,,,session,2585.179848699947,174.0,2.0,72.0,0.03128115200000001,5,1.1506208999780938,1.4675796000519767,7,1.8710406000027433,2.00566530006472,1,7.024346399935894,7.174627500004135,,,66.0,69.0,28483,60.0,
77,77,-45,10,2,162,0,,,,,,,,,,,session,2602.4342675999505,150.0,2.0,72.0,0.03128115200000001,5,1.9320751000195742,2.098712300066836,1,1.8488044999539852,1.9322435000212863,1,1.1653265999630094,1.232017199974507,,,48.0,54.0,28483,60.0,
-77,-77,-45,10,3,163,12,,,,,,,,,,,session,2614.0248384999577,150.0,2.0,72.0,0.03128115200000001,4,1.0900012999773026,1.271754499990493,6,1.4038636999903247,1.5530360999982804,0,1.3201614000136033,1.5037283001001924,,,60.0,48.0,28483,60.0,
-77,-77,0,10,4,164,13,,,,,,,,,,,session,2624.1003946999554,126.0,2.0,72.0,0.03128115200000001,3,0.6962850999552757,0.8602565999608487,0,1.0199421000434086,1.219918500049971,1,1.401101400027983,1.7190273000160232,,,51.0,57.0,28483,60.0,
77,-77,90,10,5,165,11,,,,,,,,,,,session,2633.9098236999707,126.0,2.0,72.0,0.03128115200000001,4,0.10521059995517135,0.38856819993816316,6,1.5910607000114396,2.008032999932766,1,0.011074200039729476,0.268487700028345,,,48.0,57.0,28483,60.0,
-77,77,-45,10,6,166,4,,,,,,,,,,,session,2641.864030399942,144.0,2.0,72.0,0.03128115200000001,2,2.17663789994549,2.2904147999361157,0,0.011586700100451708,0.01354620000347495,0,0.46600549994036555,0.5994071000022814,,,72.0,48.0,28483,60.0,
-77,77,90,10,7,167,7,,,,,,,,,,,session,2650.6237945000175,126.0,2.0,72.0,0.03128115200000001,2,1.3126204999862239,1.5127324000932276,6,5.990643400000408,6.290823900024407,1,4.420285700005479,4.537183699896559,,,63.0,60.0,28483,60.0,
77,-77,45,10,8,168,10,,,,,,,,,,,session,2668.584091400029,132.0,2.0,72.0,0.03128115200000001,4,0.42966059991158545,0.6262429999187589,7,1.7213541000382975,1.8708870999980718,0,1.636784299975261,1.7865356999682263,,,63.0,57.0,28483,60.0,
-77,77,0,10,9,169,5,,,,,,,,,,,session,2679.2418229000177,138.0,2.0,72.0,0.03128115200000001,2,2.2559272000798956,2.3561423000646755,0,0.7549464999465272,0.905467199976556,1,0.9046034999191761,1.0363803999498487,,,54.0,48.0,28483,60.0,
77,-77,-45,10,10,170,8,,,,,,,,,,,session,2688.983375699958,168.0,2.0,72.0,0.03128115200000001,4,1.5766918000299484,1.7411173000000417,1,1.370443299994804,1.553919699974358,1,0.7328401999548078,0.9005655999062583,,,72.0,57.0,28483,60.0,
77,77,0,10,11,171,1,,,,,,,,,,,session,2700.2091338000027,174.0,2.0,72.0,0.03128115200000001,5,1.4213521999772638,1.5714152998989448,6,1.806595200090669,2.0758886000839993,0,4.637768000015058,4.826174100046046,,,48.0,66.0,28483,60.0,
-77,77,45,10,12,172,6,,,,,,,,,,,session,2714.9271459999727,156.0,2.0,72.0,0.03128115200000001,5,2.175237199990079,2.3418353999732062,1,1.5275334999896586,1.6947798999026418,0,0.31793220003601164,0.5014669999945909,,,51.0,48.0,28483,60.0,
-77,-77,45,10,13,173,14,,,,,,,,,,,session,2725.342944599921,144.0,2.0,72.0,0.03128115200000001,4,0.7029788999352604,0.8531481999671087,0,0.8402061000233516,1.0236953999847174,0,0.01096099999267608,0.012867099954746664,,,69.0,51.0,28483,60.0,
77,-77,0,10,14,174,9,,,,,,,,,,,session,2733.0829738000175,156.0,2.0,72.0,0.03128115200000001,4,0.09495639998931438,0.24505420005880296,0,0.011634599999524653,0.01354169996920973,1,0.011516900034621358,0.013439200003631413,,,66.0,51.0,28483,60.0,
-77,-77,90,10,15,175,15,,,,,,,,,,,session,2739.886073999922,132.0,2.0,72.0,0.03128115200000001,5,1.5999296000227332,1.6673817000119016,1,1.7412059999769554,2.0733789999503642,0,0.011957700015045702,0.013880099984817207,,,72.0,51.0,28483,60.0,
77,-77,-45,11,0,176,8,,,,,,,,,,,session,2749.3394068999914,156.0,2.0,72.0,0.03128115200000001,3,0.9684222000651062,1.151081999996677,6,0.011396599933505058,0.08435139991343021,0,0.011087700026109815,0.012971999938599765,,,51.0,60.0,28483,60.0,
77,77,0,11,1,177,1,,,,,,,,,,,session,2756.4959198000142,156.0,2.0,72.0,0.03128115200000001,5,0.3303167999256402,0.49364020000211895,0,1.8528026000130922,2.07282970007509,0,0.7164498999482021,0.8832040999550372,,,63.0,66.0,28483,60.0,
77,-77,90,11,2,178,11,,,,,,,,,,,session,2766.7907379999524,132.0,2.0,72.0,0.03128115200000001,4,1.4703736000228673,1.6372789000160992,7,0.45815900003071874,0.69179129996337,0,0.41740969999227673,0.5841836000327021,,,51.0,48.0,28483,60.0,
-77,77,-45,11,3,179,4,,,,,,,,,,,session,2774.9972600999754,126.0,2.0,72.0,0.03128115200000001,2,0.93875550001394,1.1061177999945357,1,2.3135500999633223,2.5135561999632046,7,4.830002299975604,4.914887199993245,,,72.0,48.0,28483,60.0,
-77,77,-45,11,3,179,4,,,materials/instructions\12_break.png,2789.137949199998,2850.839636699995,0,61.46636600000784,61.69968620000873,0.02186849992722273,61.70737179997377,,,,,,,,,,,,,,,,,,,,28483,60.0,
77,77,90,11,4,180,3,,,,,,,,,,,session,2850.8558992999606,150.0,2.0,72.0,0.03128115200000001,5,1.1649690999183804,1.2472977999132127,6,1.2362577999010682,1.3362887999974191,1,1.2422522000269964,1.3260305000003427,,,57.0,60.0,28483,60.0,
77,-77,45,11,5,181,10,,,,,,,,,,,session,2860.6624022999313,156.0,2.0,72.0,0.03128115200000001,4,0.09746150008868426,0.26588389999233186,7,1.4868963999906555,1.621771499980241,1,1.0963400000473484,1.276804200024344,,,66.0,69.0,28483,60.0,
-77,77,45,11,6,182,6,,,,,,,,,,,session,2870.1570136999944,162.0,2.0,72.0,0.03128115200000001,2,0.5008707999950275,0.6336408000206575,7,1.4948654999025166,1.7284861999796703,1,0.011342799989506602,0.01324239990208298,,,48.0,66.0,28483,60.0,
-77,-77,-45,11,7,183,12,,,,,,,,,,,session,2878.6549538000254,168.0,2.0,72.0,0.03128115200000001,4,1.2201277000131086,1.420034599956125,6,2.55894149991218,2.7256997999502346,0,0.01140840002335608,0.013317500008270144,,,51.0,60.0,28483,60.0,
-77,77,90,11,8,184,7,,,,,,,,,,,session,2888.91127209994,168.0,2.0,72.0,0.03128115200000001,2,0.2630402999930084,0.44398280000314116,6,1.85217989992816,2.2356692999601364,1,1.2528089999686927,1.4361978999804705,,,54.0,66.0,28483,60.0,
77,77,-45,11,9,185,0,,,,,,,,,,,session,2900.062334200018,156.0,2.0,72.0,0.03128115200000001,5,0.42664940003305674,0.6274275999749079,1,0.6917398000368848,0.8903470999794081,1,2.2838140999665484,2.5509096999885514,,,57.0,63.0,28483,60.0,
-77,-77,90,11,10,186,15,,,,,,,,,,,session,2910.182719000033,150.0,2.0,72.0,0.03128115200000001,4,0.7841758000431582,1.0533522000769153,1,3.7016202999511734,3.9192608000012115,0,0.6188027000753209,0.9023995000170544,,,51.0,60.0,28483,60.0,
-77,-77,0,11,11,187,13,,,,,,,,,,,session,2922.5624454999343,156.0,2.0,72.0,0.03128115200000001,3,0.26778530003502965,0.45116569998208433,0,0.48758729989640415,0.6708548999158666,1,2.9216497999150306,3.0214802999980748,,,48.0,72.0,28483,60.0,
77,77,45,11,12,188,2,,,,,,,,,,,session,2932.7515769000165,168.0,2.0,72.0,0.03128115200000001,4,0.8096831000875682,0.9931451000738889,7,0.011500900029204786,0.013460499932989478,0,0.6136158000444993,0.011034600087441504,,,57.0,72.0,28483,60.0,
-77,-77,45,11,13,189,14,,,,,,,,,,,session,2941.51183209999,162.0,2.0,72.0,0.03128115200000001,5,1.5191458000335842,1.7193302999949083,7,0.01247499999590218,0.014381699962541461,0,0.011017600074410439,0.01291230006609112,,,54.0,57.0,28483,60.0,
-77,77,0,11,14,190,5,,,,,,,,,,,session,2949.2573152999394,180.0,2.0,72.0,0.03128115200000001,2,0.048563600052148104,0.23306180001236498,0,0.5251101999310777,0.6971810000250116,0,0.46475309995003045,0.680327899986878,,,63.0,54.0,28483,60.0,
77,-77,0,11,15,191,9,,,,,,,,,,,session,2957.263072700007,168.0,2.0,72.0,0.03128115200000001,4,1.200826199958101,1.3507714999141172,6,0.011475199949927628,0.013393400004133582,0,0.010981199913658202,0.012867999961599708,,,48.0,72.0,28483,60.0,
77,77,-45,12,0,192,0,,,,,,,,,,,session,2965.256615899969,162.0,2.0,72.0,0.03128115200000001,5,1.0869406000711024,1.1703491000225767,1,1.6071509999455884,1.8081812999444082,1,0.011112499982118607,0.0804096000501886,,,51.0,57.0,28483,60.0,
77,-77,0,12,1,193,9,,,,,,,,,,,session,2974.2634597999277,174.0,2.0,72.0,0.03128115200000001,2,3.210127400001511,3.298598200082779,0,1.8095052000135183,1.926138099981472,0,1.5832470000023022,1.7176260999403894,,,57.0,60.0,28483,60.0,
-77,-77,90,12,2,194,15,,,,,,,,,,,session,2987.5622845999897,132.0,2.0,72.0,0.03128115200000001,4,0.7165678999153897,0.9334686999209225,6,2.3885834999382496,2.5075348999816924,0,0.010964100016281009,0.012908400036394596,,,54.0,66.0,28483,60.0,
-77,77,45,12,3,195,6,,,,,,,,,,,session,2996.660130799981,126.0,2.0,72.0,0.03128115200000001,4,0.8440080999862403,0.9946022999938577,6,0.011569900088943541,0.01344860007520765,0,0.012141500017605722,0.01407080003991723,,,72.0,57.0,28483,60.0,
-77,77,90,12,4,196,7,,,,,,,,,,,session,3003.4077931999927,162.0,2.0,72.0,0.03128115200000001,2,2.5020554000511765,2.6354472000384703,6,0.0693079000338912,0.1529613999882713,0,0.011207500007003546,0.013105000020004809,,,63.0,60.0,28483,60.0,
77,77,45,12,5,197,2,,,,,,,,,,,session,3012.4055425999686,180.0,2.0,72.0,0.03128115200000001,4,0.011029699933715165,0.012882999959401786,7,2.7661237000720575,2.8662171000614762,1,0.03469569992739707,0.15179769997484982,,,60.0,48.0,28483,60.0,
77,-77,-45,12,6,198,8,,,,,,,,,,,session,3021.7008566999575,168.0,2.0,72.0,0.03128115200000001,2,8.69495800009463,8.811653800075874,0,0.8299078000709414,0.9474466000683606,1,3.2478777000214905,3.414688599994406,,,54.0,57.0,28483,60.0,
-77,-77,0,12,7,199,13,,,,,,,,,,,session,3041.5198288999964,150.0,2.0,72.0,0.03128115200000001,5,1.7214384999824688,1.9009037000359967,6,1.787453000084497,1.9204965000972152,0,1.0005391999147832,1.1006954999174923,,,63.0,72.0,28483,60.0,
-77,-77,0,12,7,199,13,,,materials/instructions\12_break.png,3053.00499019993,3108.9325740999775,0,55.82509639998898,55.92548750003334,0.02278999995905906,55.93315379996784,,,,,,,,,,,,,,,,,,,,28483,60.0,
77,-77,45,12,8,200,10,,,,,,,,,,,session,3108.9482395999366,150.0,2.0,72.0,0.03128115200000001,4,0.9820626999717206,1.1322169998893514,6,0.011424400028772652,0.013337899930775166,0,0.6802382000023499,0.011168800061568618,,,54.0,72.0,28483,60.0,
77,-77,90,12,9,201,11,,,,,,,,,,,session,3117.4784452000167,132.0,2.0,72.0,0.03128115200000001,2,1.7695172000676394,1.9050402999855578,7,0.012425499968230724,0.014324299991130829,0,0.011292299954220653,0.01326909998897463,,,57.0,54.0,28483,60.0,
-77,-77,-45,12,10,202,12,,,,,,,,,,,session,3124.9095098000253,126.0,2.0,72.0,0.03128115200000001,4,0.8168501000618562,1.1308878000127152,7,0.011637500021606684,0.01354930002707988,0,1.2329957999754697,0.010929099982604384,,,66.0,51.0,28483,60.0,
-77,-77,45,12,11,203,14,,,,,,,,,,,session,3132.8070402999874,174.0,2.0,72.0,0.03128115200000001,3,0.0795847000554204,0.2657896000891924,7,1.6364114999305457,1.8364302999107167,6,0.9148738000076264,1.1333622999954969,,,57.0,54.0,28483,60.0,
-77,77,-45,12,12,204,4,,,,,,,,,,,session,3142.8791984999552,150.0,2.0,72.0,0.03128115200000001,2,1.2892949000233784,1.4396537001011893,1,1.6409628000110388,1.806753300013952,1,0.4149091999279335,0.7156307999975979,,,54.0,72.0,28483,60.0,
77,77,0,12,13,205,1,,,,,,,,,,,session,3152.869380799937,144.0,2.0,72.0,0.03128115200000001,5,0.2935171000426635,0.44349880004301667,0,1.4502179000992328,1.6511674000648782,1,0.48522599996067584,0.6352250999771059,,,54.0,54.0,28483,60.0,
77,77,90,12,14,206,3,,,,,,,,,,,session,3161.6430142000318,126.0,2.0,72.0,0.03128115200000001,3,1.4064993999199942,1.6066704000113532,6,0.011514399899169803,0.24998590000905097,0,0.011604700004681945,0.23339369997847825,,,57.0,72.0,28483,60.0,
-77,77,0,12,15,207,5,,,,,,,,,,,session,3169.431477200007,138.0,2.0,72.0,0.03128115200000001,4,1.7010546000674367,1.966823700000532,6,0.011897600023075938,0.13777050003409386,0,0.011021799989975989,0.19593080005142838,,,69.0,63.0,28483,60.0,
-77,77,-45,13,0,208,4,,,,,,,,,,,session,3177.695774600026,162.0,2.0,72.0,0.03128115200000001,2,1.9223741000751033,2.0746912000468,0,1.8878382000839338,2.107281500007957,0,2.150945800007321,2.386433899984695,,,48.0,72.0,28483,60.0,
77,77,0,13,1,209,1,,,,,,,,,,,session,3190.914346699952,156.0,2.0,72.0,0.03128115200000001,5,6.936433700029738,7.153117100009695,6,0.011565700056962669,0.01350050000473857,0,0.011185900075361133,0.013067700085230172,,,63.0,63.0,28483,60.0,
77,77,90,13,2,210,3,,,,,,,,,,,session,3204.274034300004,138.0,2.0,72.0,0.03128115200000001,5,0.93511890002992,1.068596199969761,6,1.168519000057131,1.3685778999933973,1,0.6361053999280557,0.8027615000028163,,,48.0,54.0,28483,60.0,
-77,-77,0,13,3,211,13,,,,,,,,,,,session,3212.9631521999836,180.0,2.0,72.0,0.03128115200000001,2,2.618554500048049,2.7044545999960974,0,0.2218220999930054,0.32183939998503774,0,0.3299466000171378,0.44021560007240623,,,57.0,54.0,28483,60.0,
77,77,-45,13,4,212,0,,,,,,,,,,,session,3222.7420715999324,126.0,2.0,72.0,0.03128115200000001,5,0.5646771999308839,0.6956313999835402,1,1.9531893999082968,2.068385799997486,1,0.3492413000203669,0.46791140001732856,,,63.0,54.0,28483,60.0,
-77,77,0,13,5,213,5,,,,,,,,,,,session,3231.778296899982,126.0,2.0,72.0,0.03128115200000001,2,0.10194480000063777,0.20050779997836798,0,0.4866167000727728,0.6024913999717683,1,1.8688011000631377,2.0021546999923885,,,48.0,66.0,28483,60.0,
-77,-77,90,13,6,214,15,,,,,,,,,,,session,3240.051830100012,162.0,2.0,72.0,0.03128115200000001,3,1.2881839000619948,1.5100572999799624,6,0.01157440000679344,0.013633099966682494,0,0.011044599930755794,0.01294929999858141,,,63.0,57.0,28483,60.0,
77,77,45,13,7,215,2,,,,,,,,,,,session,3247.936711499933,126.0,2.0,72.0,0.03128115200000001,5,1.3206058000214398,1.4528536000289023,0,0.7028259999351576,0.8694272999418899,0,0.491630999953486,0.6085641999961808,,,57.0,60.0,28483,60.0,
77,-77,-45,13,8,216,8,,,,,,,,,,,session,3256.3639099999564,144.0,2.0,72.0,0.03128115200000001,4,0.011644600075669587,0.013580100028775632,7,3.655395000008866,3.7731348000233993,0,0.4990213999990374,0.696472299983725,,,69.0,51.0,28483,60.0,
77,-77,0,13,9,217,9,,,,,,,,,,,session,3266.6806397000328,162.0,2.0,72.0,0.03128115200000001,5,2.9865057000424713,3.0855329000623897,1,0.2708112000254914,0.4031867999583483,0,0.3368892000289634,0.5014876000350341,,,48.0,57.0,28483,60.0,
-77,77,90,13,10,218,7,,,,,,,,,,,session,3276.861425800016,156.0,2.0,72.0,0.03128115200000001,2,0.43125199992209673,0.5312357998918742,6,2.8054547000210732,3.00562660000287,1,0.011409799917601049,0.01332549995277077,,,48.0,54.0,28483,60.0,
-77,-77,45,13,11,219,14,,,,,,,,,,,session,3286.1627854999388,150.0,2.0,72.0,0.03128115200000001,3,0.9627138000214472,1.0962895000120625,7,1.5550961999688298,1.6861924000550061,1,0.3704109999816865,0.5379002999980003,,,54.0,72.0,28483,60.0,
-77,-77,45,13,11,219,14,,,materials/instructions\12_break.png,3296.108456099988,3346.3130106999306,0,50.03541980008595,50.20245110010728,0.020532599999569356,50.210034299991094,,,,,,,,,,,,,,,,,,,,28483,60.0,
-77,-77,-45,13,12,220,12,,,,,,,,,,,session,3346.328627699986,138.0,2.0,72.0,0.03128115200000001,5,1.381387099972926,1.4824622999876738,1,0.012442699982784688,0.014337999979034066,0,0.9600074000190943,1.16013119998388,,,72.0,66.0,28483,60.0,
-77,77,45,13,13,221,6,,,,,,,,,,,session,3355.1601631999947,150.0,2.0,72.0,0.03128115200000001,2,0.8770452999742702,1.0270100999623537,7,1.8196670999750495,1.936226399964653,0,0.7372359000146389,1.0048864000709727,,,72.0,57.0,28483,60.0,
77,-77,45,13,14,222,10,,,,,,,,,,,session,3365.5312869999325,126.0,2.0,72.0,0.03128115200000001,4,1.0414026000071317,1.2229533001082018,7,0.8963150000199676,1.0107936999993399,1,0.3165357999969274,0.49931179999839514,,,57.0,57.0,28483,60.0,
77,-77,90,13,15,223,11,,,,,,,,,,,session,3373.702365999925,180.0,2.0,72.0,0.03128115200000001,2,1.0256440000375733,1.1463150000199676,0,1.0530345999868587,1.2520865999395028,0,1.5298537000780925,1.830198400071822,,,60.0,66.0,28483,60.0,
-77,-77,0,14,0,224,13,,,,,,,,,,,session,3385.0127755999565,138.0,2.0,72.0,0.03128115200000001,4,0.6017035000259057,0.8187922000652179,6,0.36146070004906505,0.5443207001080737,0,0.16022169997449964,0.4104179999558255,,,66.0,57.0,28483,60.0,
-77,77,90,14,1,225,7,,,,,,,,,,,session,3392.5665972999996,138.0,2.0,72.0,0.03128115200000001,2,0.9762545999838039,1.3439796000020579,6,1.1345435000257567,1.5348315000301227,0,0.264584599994123,0.6174418000737205,,,48.0,57.0,28483,60.0,
-77,77,0,14,2,226,5,,,,,,,,,,,session,3401.5452866000123,150.0,2.0,72.0,0.03128115200000001,3,0.7676516999490559,1.0348696999717504,1,2.489530500024557,2.6729028000263497,0,0.3877720000455156,0.5212593999458477,,,69.0,57.0,28483,60.0,
77,77,-45,14,3,227,0,,,,,,,,,,,session,3411.8140773000196,174.0,2.0,72.0,0.03128115200000001,4,0.7592176999896765,0.9929836000083014,7,0.5218431999674067,0.6708641999866813,0,0.8044187999330461,0.9405919999117032,,,54.0,57.0,28483,60.0,
-77,77,-45,14,4,228,4,,,,,,,,,,,session,3420.6089437999763,180.0,2.0,72.0,0.03128115200000001,2,3.307817699969746,3.439209199976176,1,0.5352629000553861,0.6857073000865057,0,3.088331500068307,3.272547700093128,,,48.0,57.0,28483,60.0,
77,-77,0,14,5,229,9,,,,,,,,,,,session,3434.6645632999716,150.0,2.0,72.0,0.03128115200000001,4,0.07444310002028942,0.1738801000174135,0,1.1882563999388367,1.3708765000337735,0,1.7288723998935893,1.945477099972777,,,57.0,60.0,28483,60.0,
77,77,90,14,6,230,3,,,,,,,,,,,session,3444.0433279999997,174.0,2.0,72.0,0.03128115200000001,5,1.1709864999866113,1.3046963000670075,6,2.1713912000413984,2.336998200044036,0,0.4564487999305129,0.6398478000191972,,,69.0,51.0,28483,60.0,
-77,-77,-45,14,7,231,12,,,,,,,,,,,session,3454.880623999983,168.0,2.0,72.0,0.03128115200000001,3,0.5508798999944702,0.7510034999577329,7,0.6067694999510422,0.7735002000117674,0,0.917765700025484,1.1012606000294909,,,57.0,54.0,28483,60.0,
77,-77,90,14,8,232,11,,,,,,,,,,,session,3463.604150100029,150.0,2.0,72.0,0.03128115200000001,2,1.3444022999610752,1.4777570000151172,0,5.189597800024785,5.439819899969734,7,1.4130971999838948,1.494268300011754,,,66.0,66.0,28483,60.0,
77,77,45,14,9,233,2,,,,,,,,,,,session,3478.748882899992,126.0,2.0,72.0,0.03128115200000001,5,1.3210932000074536,1.4543822999112308,7,1.8757232000352815,1.9772920000832528,1,0.16167019994463772,0.4503183000488207,,,51.0,48.0,28483,60.0,
-77,-77,45,14,10,234,14,,,,,,,,,,,session,3487.8317908999743,150.0,2.0,72.0,0.03128115200000001,3,0.9332438999554142,1.3170940999407321,7,1.4199995000381023,1.601246100035496,1,0.011097399983555079,0.06521260004956275,,,60.0,69.0,28483,60.0,
77,-77,45,14,11,235,10,,,,,,,,,,,session,3497.227996199974,126.0,2.0,72.0,0.03128115200000001,4,1.136839999933727,1.3370129999238998,1,0.5585977000882849,0.6912381000583991,0,0.33453420002479106,0.48474019998684525,,,54.0,48.0,28483,60.0,
-77,77,45,14,12,236,6,,,,,,,,,,,session,3504.9866600999376,180.0,2.0,72.0,0.03128115200000001,5,1.449433899950236,1.5993803000310436,0,0.838726699934341,1.305307099944912,0,0.834237499977462,1.2345517999492586,,,48.0,57.0,28483,60.0,
77,77,0,14,13,237,1,,,,,,,,,,,session,3515.395907799946,126.0,2.0,72.0,0.03128115200000001,5,1.2185958999907598,1.4168803999200463,0,0.01152389997150749,0.20733739994466305,1,0.01150340004824102,0.33939249999821186,,,54.0,54.0,28483,60.0,
-77,-77,90,14,14,238,15,,,,,,,,,,,session,3522.6989637999795,126.0,2.0,72.0,0.03128115200000001,4,0.9042489000130445,0.9214542000554502,1,0.054030400002375245,0.23978199996054173,0,0.25491569994483143,0.4551168999169022,,,60.0,69.0,28483,60.0,
77,-77,-45,14,15,239,8,,,,,,,,,,,session,3530.004614699981,144.0,2.0,72.0,0.03128115200000001,3,0.6294209999032319,0.8464912999188527,7,0.011866399901919067,0.05845779995433986,0,0.011092100059613585,0.05255090002901852,,,69.0,54.0,28483,60.0,
77,-77,-45,14,15,239,8,,,materials/instructions\12_break.png,3537.577304599923,3599.598305899999,0,61.85337580007035,62.018841100041755,0.02012750005815178,62.044020600034855,,,,,,,,,,,,,,,,,,,,28483,60.0,
77,77,0,15,0,240,1,,,,,,,,,,,session,3599.631365099922,168.0,2.0,72.0,0.03128115200000001,5,0.8198015000671148,0.9816057999851182,0,0.012387600028887391,0.014307399978861213,1,0.8143778999801725,0.010988100082613528,,,69.0,66.0,28483,60.0,
77,-77,45,15,1,241,10,,,,,,,,,,,session,3609.150410400005,138.0,2.0,72.0,0.03128115200000001,4,1.1581444999901578,1.374826299957931,6,2.025648499955423,2.2249862999888137,1,0.30107279994990677,0.53452590003144,,,57.0,48.0,28483,60.0,
-77,-77,90,15,2,242,15,,,,,,,,,,,session,3618.773092599935,144.0,2.0,72.0,0.03128115200000001,4,0.8958627000683919,1.0935221000108868,1,0.6489531999686733,0.8004096000222489,0,0.4486916000023484,0.6141759000020102,,,72.0,54.0,28483,60.0,
77,77,-45,15,3,243,0,,,,,,,,,,,session,3627.9128013999434,180.0,2.0,72.0,0.03128115200000001,5,0.3283722000196576,0.5287909000180662,6,3.827036499977112,3.926558200037107,0,2.0201757000759244,2.268206199980341,,,72.0,57.0,28483,60.0,
77,-77,0,15,4,244,9,,,,,,,,,,,session,3641.2229776999447,126.0,2.0,72.0,0.03128115200000001,4,1.2664799999911338,1.4298132000258192,0,1.123615499935113,1.2750339999329299,1,2.1823307999875396,2.3334111999720335,,,51.0,69.0,28483,60.0,
-77,77,45,15,5,245,6,,,,,,,,,,,session,3652.4646037999773,132.0,2.0,72.0,0.03128115200000001,5,1.354060599929653,1.5041998999658972,1,5.21264180005528,5.302315199980512,0,0.011291000060737133,0.05892930005211383,,,72.0,57.0,28483,60.0,
77,-77,90,15,6,246,11,,,,,,,,,,,session,3665.1295646999497,138.0,2.0,72.0,0.03128115200000001,5,1.9161809999495745,2.09959009999875,6,0.33546520001254976,0.535660499939695,0,0.40191060001961887,0.6866730999900028,,,60.0,57.0,28483,60.0,
-77,-77,45,15,7,247,14,,,,,,,,,,,session,3674.281592299929,126.0,2.0,72.0,0.03128115200000001,4,0.9875618999358267,1.1875790000194684,1,0.011414999957196414,0.013367600040510297,0,0.5494972999440506,0.01113849994726479,,,60.0,60.0,28483,60.0,
-77,77,90,15,8,248,7,,,,,,,,,,,session,3681.5879176999442,138.0,2.0,72.0,0.03128115200000001,4,1.021490199957043,1.2615959999384359,6,0.011536299949511886,0.01344679994508624,0,0.5494805000489578,0.011078100069426,,,63.0,69.0,28483,60.0,
-77,-77,0,15,9,249,13,,,,,,,,,,,session,3689.3683775999816,126.0,2.0,72.0,0.03128115200000001,3,1.3158677000319585,1.4499504000414163,6,0.011422400013543665,0.01331380009651184,0,0.011883599916473031,0.013721599942073226,,,66.0,48.0,28483,60.0,
-77,77,-45,15,10,250,4,,,,,,,,,,,session,3696.3058096999303,150.0,2.0,72.0,0.03128115200000001,4,1.1338199999881908,1.3670971000101417,1,0.011972199892625213,0.013885699911043048,0,0.011066599981859326,0.012914699967950583,,,69.0,66.0,28483,60.0,
-77,-77,-45,15,11,251,12,,,,,,,,,,,session,3703.9015821999637,174.0,2.0,72.0,0.03128115200000001,4,2.1990447000134736,2.330861800001003,6,0.011444299947470427,0.013356199953705072,0,0.011083499994128942,0.012999199912883341,,,72.0,57.0,28483,60.0,
77,-77,-45,15,12,252,8,,,,,,,,,,,session,3712.854891599971,162.0,2.0,72.0,0.03128115200000001,5,1.5370921000139788,1.654536999994889,6,0.01153140002861619,0.013382700039073825,0,0.011984299984760582,0.013871399918571115,,,66.0,63.0,28483,60.0,
77,77,45,15,13,253,2,,,,,,,,,,,session,3720.8411413999274,168.0,2.0,72.0,0.03128115200000001,5,1.120133199961856,1.1867934999754652,7,1.3238243000814691,1.4404802999924868,1,0.011148100020363927,0.01303370005916804,,,54.0,69.0,28483,60.0,
-77,77,0,15,14,254,5,,,,,,,,,,,session,3729.763429899933,168.0,2.0,72.0,0.03128115200000001,2,1.1136295000324026,1.2133580000372604,0,1.1357690000440925,1.2517041000537574,1,4.023475299938582,4.15668839996215,,,72.0,60.0,28483,60.0,
77,77,90,15,15,255,3,,,,,,,,,,,session,3743.3832115000114,126.0,2.0,72.0,0.03128115200000001,4,0.6271461999276653,0.7940515000373125,6,1.5178218999644741,1.6178305000066757,0,0.5112265000352636,0.6113220000406727,,,51.0,57.0,28483,60.0,
77,-77,0,16,0,256,9,,,,,,,,,,,session,3752.099892899976,156.0,2.0,72.0,0.03128115200000001,4,1.3116497000446543,1.394981799996458,7,1.4038430999498814,1.6002453999826685,0,0.8222771999426186,0.9734035000437871,,,48.0,48.0,28483,60.0,
77,77,0,16,1,257,1,,,,,,,,,,,session,3762.284403900034,174.0,2.0,72.0,0.03128115200000001,5,3.8060692999279127,3.93940259993542,1,1.2054580999538302,1.3556783999083564,0,0.2573839999968186,0.5495443999534473,,,72.0,57.0,28483,60.0,
-77,77,90,16,2,258,7,,,,,,,,,,,session,3774.618447799934,126.0,2.0,72.0,0.03128115200000001,2,1.164936300017871,1.2811891000019386,6,0.012031799997203052,0.11753960000351071,0,0.011487800045870245,0.01336860004812479,,,48.0,57.0,28483,60.0,
77,77,-45,16,3,259,0,,,,,,,,,,,session,3781.77615229995,156.0,2.0,72.0,0.03128115200000001,5,0.7549552000127733,0.889167100074701,7,0.01178319996688515,0.013639900018461049,0,0.012099099927581847,0.03580559999682009,,,69.0,51.0,28483,60.0,
77,77,-45,16,3,259,0,,,materials/instructions\12_break.png,3788.781941000023,3814.334164400003,0,25.41672199999448,25.550085499999113,0.020534400013275445,25.557843700051308,,,,,,,,,,,,,,,,,,,,28483,60.0,
77,-77,45,16,4,260,10,,,,,,,,,,,session,3814.3495451000053,156.0,2.0,72.0,0.03128115200000001,5,1.561144100036472,1.6943098000483587,6,0.01130020001437515,0.013202999951317906,0,0.3830694000935182,0.011178500019013882,,,54.0,66.0,28483,60.0,
77,77,90,16,5,261,3,,,,,,,,,,,session,3822.5498607000336,180.0,2.0,72.0,0.03128115200000001,3,0.81823059997987,1.0016356999985874,1,0.2748200000496581,0.45890790002886206,0,0.2658229999942705,0.44924399990122765,,,66.0,51.0,28483,60.0,
-77,77,45,16,6,262,6,,,,,,,,,,,session,3830.8496170999715,162.0,2.0,72.0,0.03128115200000001,2,0.3068218999542296,0.47270219994243234,7,1.4399397000670433,1.5420060000615194,1,0.3389191000023857,0.5211935000261292,,,57.0,57.0,28483,60.0,
77,-77,90,16,7,263,11,,,,,,,,,,,session,3839.4064360000193,168.0,2.0,72.0,0.03128115200000001,4,0.9666968000819907,1.1663804000709206,6,2.173108800081536,2.426059400080703,1,1.9393548000371084,2.0737526000011712,,,48.0,48.0,28483,60.0,
-77,-77,90,16,8,264,15,,,,,,,,,,,session,3851.468871099991,168.0,2.0,72.0,0.03128115200000001,5,1.352221900015138,1.4856501000467688,6,0.5558572999434546,0.8070518999593332,0,0.18580360000487417,0.41846680000890046,,,51.0,66.0,28483,60.0,
-77,77,-45,16,9,265,4,,,,,,,,,,,session,3860.3723128000274,132.0,2.0,72.0,0.03128115200000001,2,1.0593834000173956,1.2798985000699759,1,0.8273580999812111,1.027384900022298,0,0.13586559996474534,0.3033606999088079,,,72.0,54.0,28483,60.0,
77,-77,-45,16,10,266,8,,,,,,,,,,,session,3869.2481038999977,150.0,2.0,72.0,0.03128115200000001,3,2.303620500024408,2.487328900024295,6,0.8739017000189051,1.2241193000227213,0,10.77932669990696,10.86540889996104,,,54.0,57.0,28483,60.0,
-77,-77,0,16,11,267,13,,,,,,,,,,,session,3889.6352193999337,162.0,2.0,72.0,0.03128115200000001,4,0.010928999981842935,0.012831699918024242,6,6.20888049993664,6.3590801999671385,0,0.76214629993774,0.8949117999291047,,,48.0,54.0,28483,60.0,
-77,-77,45,16,12,268,14,,,,,,,,,,,session,3902.77433819999,150.0,2.0,72.0,0.03128115200000001,4,0.6273136000381783,0.7773210000013933,1,0.011504000052809715,0.013448500074446201,0,0.011314900009892881,0.013205200084485114,,,72.0,54.0,28483,60.0,
-77,-77,-45,16,13,269,12,,,,,,,,,,,session,3909.708208899945,168.0,2.0,72.0,0.03128115200000001,3,0.29573550005443394,0.4627328000497073,7,0.011777000036090612,0.013691100059077144,1,0.012011800077743828,0.013963100034743547,,,63.0,72.0,28483,60.0,
-77,77,0,16,14,270,5,,,,,,,,,,,session,3916.6907598000253,174.0,2.0,72.0,0.03128115200000001,4,0.6228937999112532,0.7730380999855697,6,0.011476599960587919,0.013354599941521883,0,0.011994200060144067,0.013894900097511709,,,60.0,57.0,28483,60.0,
77,77,45,16,15,271,2,,,,,,,,,,,session,3923.7891424000263,150.0,2.0,72.0,0.03128115200000001,2,0.01117839990183711,0.013120099902153015,6,0.011907100095413625,0.07725800003390759,0,0.011153699946589768,0.013084399979561567,,,72.0,54.0,28483,60.0,
77,77,90,17,0,272,3,,,,,,,,,,,session,3929.94814220001,150.0,2.0,72.0,0.03128115200000001,5,1.467832800000906,1.5681332999374717,6,2.8317871999461204,2.9465900999493897,1,1.1894511999562383,1.289557799929753,,,51.0,69.0,28483,60.0,
77,-77,-45,17,1,273,8,,,,,,,,,,,session,3941.934350299998,180.0,2.0,72.0,0.03128115200000001,4,1.0865268000634387,1.2865294000366703,1,1.6710851000389084,1.754391200025566,1,0.3254072000272572,0.41417800006456673,,,66.0,51.0,28483,60.0,
-77,-77,45,17,2,274,14,,,,,,,,,,,session,3951.801396899973,156.0,2.0,72.0,0.03128115200000001,3,2.2077458000276238,2.3574011999880895,6,0.012386400019749999,0.01432419999036938,0,0.18159090005792677,0.28026480006519705,,,48.0,51.0,28483,60.0,
77,-77,90,17,3,275,11,,,,,,,,,,,session,3960.4480700999266,138.0,2.0,72.0,0.03128115200000001,5,1.2263994000386447,1.3453956000739709,7,0.7723518999991938,0.9056140999309719,0,0.5035045999102294,0.5700625999597833,,,69.0,72.0,28483,60.0,
-77,-77,90,17,4,276,15,,,,,,,,,,,session,3969.3566707000136,162.0,2.0,72.0,0.03128115200000001,3,0.4282090999186039,0.5635143999243155,6,2.1665520999813452,2.234573599998839,1,1.218130800058134,1.3352149000857025,,,69.0,66.0,28483,60.0,
77,77,-45,17,5,277,0,,,,,,,,,,,session,3980.1360761999385,150.0,2.0,72.0,0.03128115200000001,3,0.9338827000465244,1.1339657000498846,1,0.3882092999992892,0.5404260000213981,0,0.011176600004546344,0.35611779999453574,,,69.0,57.0,28483,60.0,
-77,77,-45,17,6,278,4,,,,,,,,,,,session,3988.2203018999426,168.0,2.0,72.0,0.03128115200000001,5,1.0990490999538451,1.249123299960047,6,0.51002879999578,0.7515324000269175,0,0.3303779000416398,0.5305654000258073,,,66.0,57.0,28483,60.0,
-77,77,45,17,7,279,6,,,,,,,,,,,session,3997.0473393999273,132.0,2.0,72.0,0.03128115200000001,4,1.0333392000757158,1.1669443000573665,1,4.322319599916227,4.5410284999525174,0,0.011061099939979613,0.012986600049771369,,,51.0,72.0,28483,60.0,
-77,77,45,17,7,279,6,,,materials/instructions\12_break.png,4008.5592765000183,4054.15150789998,0,45.49008530005813,45.590128600015305,0.010751499910838902,45.598103799973615,,,,,,,,,,,,,,,,,,,,28483,60.0,
77,-77,0,17,8,280,9,,,,,,,,,,,session,4054.1675787999993,162.0,2.0,72.0,0.03128115200000001,4,1.6442847000434995,1.7795219999970868,0,1.7737359000602737,1.9116439000936225,1,1.0085234999423847,1.1148387999273837,,,48.0,63.0,28483,60.0,
77,-77,45,17,9,281,10,,,,,,,,,,,session,4065.000891799922,180.0,2.0,72.0,0.03128115200000001,4,2.023358999984339,2.17345939995721,6,0.8538057999685407,0.9537734999321401,0,0.5560269999550655,0.6897132999729365,,,57.0,48.0,28483,60.0,
-77,77,90,17,10,282,7,,,,,,,,,,,session,4075.6202674999367,138.0,2.0,72.0,0.03128115200000001,3,1.271226100041531,1.3690398000180721,6,0.26912349998019636,0.3520420000422746,0,0.01099629991222173,0.012926599942147732,,,51.0,72.0,28483,60.0,
-77,-77,-45,17,11,283,12,,,,,,,,,,,session,4083.163347500027,138.0,2.0,72.0,0.03128115200000001,3,0.011106699937954545,0.01415229996200651,1,1.320096200099215,1.4199342000065371,1,0.09560040000360459,0.23059890000149608,,,66.0,66.0,28483,60.0,
77,77,0,17,12,284,1,,,,,,,,,,,session,4091.3191500999965,138.0,2.0,72.0,0.03128115200000001,5,0.8026740000350401,0.9028187000658363,0,0.6056044000433758,0.7386346999555826,1,1.2024537000106648,1.2693722000112757,,,63.0,57.0,28483,60.0,
77,77,45,17,13,285,2,,,,,,,,,,,session,4099.988778800005,168.0,2.0,72.0,0.03128115200000001,5,0.6516238000476733,0.7850782000459731,7,1.6204476000275463,1.70239049999509,1,2.7678084999788553,2.9687594999559224,,,57.0,60.0,28483,60.0,
-77,77,0,17,14,286,5,,,,,,,,,,,session,4111.635443800013,126.0,2.0,72.0,0.03128115200000001,3,1.8982728000264615,2.0984608000144362,1,1.5231925999978557,1.6900896000443026,0,0.0114871000405401,0.21917130006477237,,,63.0,57.0,28483,60.0,
-77,-77,0,17,15,287,13,,,,,,,,,,,session,4121.203644099995,132.0,2.0,72.0,0.03128115200000001,4,1.0302279000170529,1.1972061999840662,6,0.01168250001501292,0.01359530002810061,0,1.0330543000018224,0.011016899952664971,,,72.0,51.0,28483,60.0,
77,77,-45,18,0,288,0,,,,,,,,,,,session,4129.23887729994,174.0,2.0,72.0,0.03128115200000001,5,2.1831676999572664,2.3496707000304013,1,1.5391419999068603,1.7381744999438524,0,0.7849547000369057,0.8850756000028923,,,51.0,48.0,28483,60.0,
-77,-77,90,18,1,289,15,,,,,,,,,,,session,4140.334530799999,156.0,2.0,72.0,0.03128115200000001,3,0.486229500034824,0.6198815000243485,6,2.3268906000303105,2.427044100011699,0,1.1479541999287903,1.2597266000229865,,,60.0,54.0,28483,60.0,
-77,77,45,18,2,290,6,,,,,,,,,,,session,4150.580754900002,126.0,2.0,72.0,0.03128115200000001,5,1.4672585999360308,1.5995656999293715,7,0.011474600061774254,0.01341770007275045,0,0.011011699913069606,0.012931699980981648,,,57.0,72.0,28483,60.0,
77,77,90,18,3,291,3,,,,,,,,,,,session,4158.210501399939,156.0,2.0,72.0,0.03128115200000001,2,1.0643257999327034,1.214491599937901,6,0.2707615999970585,0.5043010999215767,0,0.011554299970157444,0.23823430004995316,,,51.0,60.0,28483,60.0,
77,77,0,18,4,292,1,,,,,,,,,,,session,4166.057772399974,150.0,2.0,72.0,0.03128115200000001,3,0.7684078000020236,0.9680760999908671,1,0.2515145998913795,0.446562199969776,0,0.8594876000424847,0.9806774000171572,,,48.0,51.0,28483,60.0,
77,77,45,18,5,293,2,,,,,,,,,,,session,4174.070034499979,156.0,2.0,72.0,0.03128115200000001,5,0.9340122999856248,1.0350666000740603,7,1.3787873000837862,1.4638098001014441,1,0.011051999987103045,0.08307220006827265,,,48.0,69.0,28483,60.0,
-77,-77,-45,18,6,294,12,,,,,,,,,,,session,4182.665357099962,150.0,2.0,72.0,0.03128115200000001,4,1.4051897999597713,1.4887406999478117,6,0.012339400011114776,0.05271090008318424,0,0.2481021999847144,0.43006060004699975,,,66.0,48.0,28483,60.0,
-77,77,-45,18,7,295,4,,,,,,,,,,,session,4190.474223700003,180.0,2.0,72.0,0.03128115200000001,3,0.6301407000282779,0.8303858999861404,1,0.1200410999590531,0.33712719997856766,0,0.011015000054612756,0.225918099982664,,,54.0,72.0,28483,60.0,
77,-77,90,18,8,296,11,,,,,,,,,,,session,4198.748739999952,150.0,2.0,72.0,0.03128115200000001,4,0.7697215999942273,1.0526669999817386,7,0.011294599971733987,0.013173599960282445,0,0.012214599992148578,0.014100099913775921,,,51.0,69.0,28483,60.0,
77,-77,45,18,9,297,10,,,,,,,,,,,session,4205.76087420003,126.0,2.0,72.0,0.03128115200000001,3,1.1392571999458596,1.423475299961865,7,0.011759900022298098,0.013653400004841387,0,0.01108830003067851,0.012975700083188713,,,51.0,54.0,28483,60.0,
-77,-77,45,18,10,298,14,,,,,,,,,,,session,4212.51847000001,150.0,2.0,72.0,0.03128115200000001,3,0.9799538999795914,1.2232587999897078,7,0.011581500060856342,0.013369400054216385,0,0.7174464000854641,0.01167380006518215,,,63.0,72.0,28483,60.0,
77,-77,0,18,11,299,9,,,,,,,,,,,session,4220.786640499951,132.0,2.0,72.0,0.03128115200000001,3,2.9848818000173196,3.1349604999413714,6,0.012643599999137223,0.014685299945995212,0,0.7881120999809355,0.010936800041235983,,,66.0,54.0,28483,60.0,
77,-77,0,18,11,299,9,,,materials/instructions\12_break.png,4230.395491999923,4321.386737299967,0,90.9893493000418,0.08527659997344017,0.010221999953500926,90.99717170000076,,,,,,,,,,,,,,,,,,,,28483,60.0,
-77,77,90,18,12,300,7,,,,,,,,,,,session,4321.40265579999,174.0,2.0,72.0,0.03128115200000001,2,0.2619443000294268,0.3298134000506252,6,0.2714194000000134,0.33812440000474453,1,0.011137699941173196,0.013062099926173687,,,60.0,69.0,28483,60.0,
-77,77,0,18,13,301,5,,,,,,,,,,,session,4328.578621299937,144.0,2.0,72.0,0.03128115200000001,2,1.7403127000434324,1.823481300030835,7,0.01246759993955493,0.014354099985212088,0,0.7131977999815717,0.8132310999790207,,,60.0,57.0,28483,60.0,
77,-77,-45,18,14,302,8,,,,,,,,,,,session,4337.0836026000325,150.0,2.0,72.0,0.03128115200000001,4,0.43976760003715754,0.5064110999228433,1,0.5807984999846667,0.6474565000971779,1,3.792568799923174,3.9436647999100387,,,51.0,60.0,28483,60.0,
-77,-77,0,18,15,303,13,,,,,,,,,,,session,4347.961490000016,156.0,2.0,72.0,0.03128115200000001,3,0.3599201999604702,0.4598990000085905,0,1.8043631999753416,1.9378102000337094,6,3.7552371999481693,3.905385100049898,,,51.0,57.0,28483,60.0,
-77,77,-45,19,0,304,4,,,,,,,,,,,session,4360.720396799967,180.0,2.0,72.0,0.03128115200000001,2,1.7380945000331849,1.9061971000628546,7,0.011670200037769973,0.013579100021161139,0,0.011231100070290267,0.01362930005416274,,,54.0,63.0,28483,60.0,
-77,77,90,19,1,305,7,,,,,,,,,,,session,4369.051804199931,132.0,2.0,72.0,0.03128115200000001,2,0.7639134000055492,0.9136494999984279,6,1.671189000015147,1.7877924999920651,1,0.011041599907912314,0.012952099903486669,,,51.0,72.0,28483,60.0,
-77,77,45,19,2,306,6,,,,,,,,,,,session,4377.979906299966,126.0,2.0,72.0,0.03128115200000001,2,0.9216782000148669,1.0050498000346124,7,1.5080502000637352,1.6242104000411928,1,0.012047500000335276,0.01393600006122142,,,63.0,66.0,28483,60.0,
77,-77,0,19,3,307,9,,,,,,,,,,,session,4386.297821699991,126.0,2.0,72.0,0.03128115200000001,4,1.0566652999259531,1.2051379999611527,1,0.7711819000542164,0.8957000999944285,0,0.01116090000141412,0.01310630002990365,,,63.0,60.0,28483,60.0,
-77,-77,-45,19,4,308,12,,,,,,,,,,,session,4394.015503400005,138.0,2.0,72.0,0.03128115200000001,4,2.9479501000605524,3.131531700026244,1,1.5719629999948665,1.6877347000408918,0,0.6525877000531182,0.8027958000311628,,,57.0,60.0,28483,60.0,
-77,-77,90,19,5,309,15,,,,,,,,,,,session,4405.570176800014,180.0,2.0,72.0,0.03128115200000001,5,2.340520599973388,2.455468100029975,7,0.2368492999812588,0.35431989992503077,0,0.03820129996165633,0.25876459991559386,,,57.0,66.0,28483,60.0,
77,77,45,19,6,310,2,,,,,,,,,,,session,4415.164137199987,150.0,2.0,72.0,0.03128115200000001,5,0.011109899962320924,0.1638748999685049,1,0.18740290007553995,0.3375053000636399,0,0.6845975000178441,0.851435299962759,,,66.0,69.0,28483,60.0,
77,-77,90,19,7,311,11,,,,,,,,,,,session,4423.137996400008,126.0,2.0,72.0,0.03128115200000001,5,1.2264613000443205,1.3743650000542402,6,0.012423700070939958,0.01421320007648319,0,0.01117720000911504,0.013071199995465577,,,66.0,63.0,28483,60.0,
77,77,90,19,8,312,3,,,,,,,,,,,session,4430.231025899993,150.0,2.0,72.0,0.03128115200000001,3,0.8914445000700653,1.0584953000070527,6,0.8770303999772295,1.0170254999538884,0,0.3964370999019593,0.5632877999451011,,,51.0,48.0,28483,60.0,
77,77,0,19,9,313,1,,,,,,,,,,,session,4438.482941000024,174.0,2.0,72.0,0.03128115200000001,4,1.0357901999959722,1.1389251000946388,7,0.011428299942053854,0.01326629996765405,0,0.011028300039470196,0.031551800086162984,,,57.0,66.0,28483,60.0,
77,77,-45,19,10,314,0,,,,,,,,,,,session,4446.232176400023,150.0,2.0,72.0,0.03128115200000001,5,0.2684161000652239,0.4684390000766143,1,1.8932218999834731,1.9932342000538483,1,0.25794020004104823,0.42500639997888356,,,69.0,48.0,28483,60.0,
77,-77,-45,19,11,315,8,,,,,,,,,,,session,4455.0070225999225,150.0,2.0,72.0,0.03128115200000001,5,1.4977991000050679,1.6120320000918582,7,0.01205290004145354,0.013935000053606927,0,0.4853207999840379,0.012191099929623306,,,57.0,54.0,28483,60.0,
77,-77,45,19,12,316,10,,,,,,,,,,,session,4462.95401440002,126.0,2.0,72.0,0.03128115200000001,4,0.03405899996869266,0.10223919991403818,7,1.2535088999429718,1.3870586999692023,1,0.752142500015907,0.9022757000057027,,,48.0,57.0,28483,60.0,
-77,-77,45,19,13,317,14,,,,,,,,,,,session,4470.653911500005,132.0,2.0,72.0,0.03128115200000001,3,0.17118970002047718,0.35324530000798404,7,1.8889494999311864,2.006879900000058,1,0.010945000103674829,0.04905720008537173,,,54.0,60.0,28483,60.0,
-77,77,0,19,14,318,5,,,,,,,,,,,session,4478.606384099927,144.0,2.0,72.0,0.03128115200000001,2,0.4046699999598786,0.5379965000320226,6,0.011520199943333864,0.06898199999704957,0,0.011043200036510825,0.01296550000552088,,,54.0,69.0,28483,60.0,
-77,-77,0,19,15,319,13,,,,,,,,,,,session,4485.44515569997,138.0,2.0,72.0,0.03128115200000001,2,1.2769487000769004,1.4083194000413641,1,0.012533099972642958,0.014453899930231273,0,0.01128690002951771,0.2015360000077635,,,57.0,63.0,28483,60.0,
-77,-77,0,19,15,319,13,,,materials/instructions\12_break.png,4492.848693299922,4517.435813199962,0,24.453110500006005,24.58497049997095,0.022357900044880807,24.592584300087765,,,,,,,,,,,,,,,,,,,,28483,60.0,
77,-77,-45,20,0,320,8,,,,,,,,,,,session,4517.451174899936,132.0,2.0,72.0,0.03128115200000001,5,1.4652735999552533,1.5653395999688655,1,0.011516200029291213,0.013459900044836104,0,0.5240030999993905,0.6509577999822795,,,63.0,54.0,28483,60.0,
77,77,90,20,1,321,3,,,,,,,,,,,session,4525.364530300023,132.0,2.0,72.0,0.03128115200000001,4,1.4292365999426693,1.5963576999492943,1,0.012469800072722137,0.014296400011517107,0,0.010902600013650954,0.012776900082826614,,,63.0,60.0,28483,60.0,
77,77,-45,20,2,322,0,,,,,,,,,,,session,4533.238327299943,144.0,2.0,72.0,0.03128115200000001,5,0.8188355000456795,0.968905600020662,1,0.8501186000648886,0.9836501000681892,1,0.3272961999755353,0.46047450008336455,,,69.0,51.0,28483,60.0,
-77,77,0,20,3,323,5,,,,,,,,,,,session,4541.490578599973,144.0,2.0,72.0,0.03128115200000001,4,0.6515571000054479,0.8183949999511242,7,1.118821799987927,1.2689211999531835,0,0.6012833999702707,0.7346655000001192,,,72.0,60.0,28483,60.0,
-77,77,45,20,4,324,6,,,,,,,,,,,session,4550.355803399929,132.0,2.0,72.0,0.03128115200000001,2,1.6731580999912694,1.7729311999864876,6,0.011366899940185249,0.013321400037966669,0,0.011040399898774922,0.012979299994185567,,,51.0,51.0,28483,60.0,
-77,-77,0,20,5,325,13,,,,,,,,,,,session,4557.516403799993,156.0,2.0,72.0,0.03128115200000001,4,0.07030400005169213,0.33904550003353506,6,0.01168369990773499,0.013590499991551042,0,0.01105849992018193,0.012969099916517735,,,57.0,57.0,28483,60.0,
77,-77,0,20,6,326,9,,,,,,,,,,,session,4563.835529999924,150.0,2.0,72.0,0.03128115200000001,2,0.8366541999857873,1.0368808000348508,1,0.011611699941568077,0.013472899910993874,0,0.011959800031036139,0.013828100054524839,,,51.0,57.0,28483,60.0,
-77,77,-45,20,7,327,4,,,,,,,,,,,session,4570.671146999928,168.0,2.0,72.0,0.03128115200000001,5,5.452569400076754,5.569808000000194,1,0.011538399965502322,0.08778519998304546,0,0.01111070008482784,0.013078000047244132,,,54.0,63.0,28483,60.0,
77,-77,90,20,8,328,11,,,,,,,,,,,session,4582.794943099958,138.0,2.0,72.0,0.03128115200000001,4,0.3647467000409961,0.5309444000013173,6,0.011354000074788928,0.15279830002691597,1,0.011204500100575387,0.13445340003818274,,,63.0,66.0,28483,60.0,
-77,-77,45,20,9,329,14,,,,,,,,,,,session,4589.492539700004,144.0,2.0,72.0,0.03128115200000001,3,0.011065599974244833,0.012885699979960918,7,1.7530801000539213,1.8371521000517532,1,0.889503400074318,0.9906290000071749,,,66.0,72.0,28483,60.0,
-77,-77,90,20,10,330,15,,,,,,,,,,,session,4599.003110299935,168.0,2.0,72.0,0.03128115200000001,3,1.0215356000699103,1.1538495999993756,6,2.694239199976437,2.8282168000005186,1,0.13370809995103627,0.2838610999751836,,,66.0,54.0,28483,60.0,
77,77,45,20,11,331,2,,,,,,,,,,,session,4609.507847500034,168.0,2.0,72.0,0.03128115200000001,5,0.011427899939008057,0.10626229993067682,7,1.3866707000415772,1.5202220000792295,1,0.9162892999593168,1.050092100049369,,,60.0,69.0,28483,60.0,
77,-77,45,20,12,332,10,,,,,,,,,,,session,4618.603126300033,168.0,2.0,72.0,0.03128115200000001,4,0.5484793999930844,0.7489547999575734,7,1.4047414000378922,1.5882379000540823,0,0.6936350000323728,0.8600772999925539,,,63.0,57.0,28483,60.0,
77,77,0,20,13,333,1,,,,,,,,,,,session,4628.040116999997,150.0,2.0,72.0,0.03128115200000001,5,0.7232070999452844,0.752898299950175,1,2.1891167999710888,2.2551990000065416,1,1.9822119999444112,2.1155951999826357,,,48.0,54.0,28483,60.0,
-77,-77,-45,20,14,334,12,,,,,,,,,,,session,4638.822941499995,144.0,2.0,72.0,0.03128115200000001,4,0.9761735999491066,1.1430605999194086,0,0.8327896000118926,0.9339493999723345,0,0.6724569000070915,0.8379169999388978,,,51.0,51.0,28483,60.0,
-77,77,90,20,15,335,7,,,,,,,,,,,session,4647.3049246999435,162.0,2.0,72.0,0.03128115200000001,4,0.538008900010027,0.6880306999664754,6,0.7728378000902012,0.8729186001000926,0,0.011777799925766885,0.013696299982257187,,,57.0,69.0,28483,60.0,
-77,-77,45,21,0,336,14,,,,,,,,,,,session,4655.119310199982,174.0,2.0,72.0,0.03128115200000001,3,0.5117823999607936,0.6453178999945521,7,0.7546820000279695,0.8880246999906376,1,0.011098999995738268,0.03806220006663352,,,54.0,69.0,28483,60.0,
77,-77,-45,21,1,337,8,,,,,,,,,,,session,4663.597634500009,168.0,2.0,72.0,0.03128115200000001,4,0.026498200022615492,0.07663540006615222,1,0.011434099986217916,0.013368899933993816,0,0.010984000051394105,0.012923900038003922,,,63.0,57.0,28483,60.0,
