x,y,orientation,.thisRepN,.thisTrialN,.thisN,.thisIndex,.stepSize,.intensity,image_name,global_start_time,global_end_time,pressKey,pressRT,releaseRT,image_started,image_ended,name,globalTime,fixation_dur,stimulation_dur,post_fixation,opacity,locationResponse_pressKey,locationResponse_pressRT,locationResponse_releaseRT,orientationResponse_pressKey,orientationResponse_pressRT,orientationResponse_releaseRT,pasResponse_pressKey,pasResponse_pressRT,pasResponse_releaseRT,.response,finalOpacity,postLoc,postOri,ID,frameRate,
,,,0,-1,-1,0,0.0969100130080564,None,materials/instructions\1_welcome.png,2.550751400005538,36.30419680000341,0,33.553257999999914,33.751348599995254,0.054986599992844276,33.750837900006445,,,,,,,,,,,,,,,,,,,,30228,60.0,
,,,0,-1,-1,0,0.0969100130080564,None,materials/instructions\2_instruction.png,36.36311500000011,71.13473679999879,0,34.6030388000072,34.769675500007,0.011167499993462116,34.77770489999966,,,,,,,,,,,,,,,,,,,,30228,60.0,
,,,0,-1,-1,0,0.0969100130080564,None,materials/instructions\3_location_demo.png,71.2033131000062,87.62655970000196,0,16.270991700002924,16.421132799994666,0.017985200000111945,16.428347199995187,,,,,,,,,,,,,,,,,,,,30228,60.0,
,,,0,-1,-1,0,0.0969100130080564,None,materials/instructions\4_orientation_demo.png,87.68692000000738,120.03592799999751,0,32.21326819999376,32.3469894999871,0.010069399999338202,32.354827100003604,,,,,,,,,,,,,,,,,,,,30228,60.0,
,,,0,-1,-1,0,0.0969100130080564,None,materials/instructions\5_pas_demo.png,120.10023710000678,140.98641759999737,0,20.75087839999469,20.884140900001512,0.021911999996518716,20.891941799985943,,,,,,,,,,,,,,,,,,,,30228,60.0,
77,77,-45,0,-1,-1,0,0.0969100130080564,None,,,,,,,,,session,141.00243079999927,162.0,2.0,72.0,0.1,5,2.0802909999911208,2.1979553999990458,7,1.979875200006063,2.1133134000119753,6,3.119180599998799,3.2369012999988627,,,,,30228,60.0,
77,77,0,0,-1,-1,0,0.0969100130080564,None,,,,,,,,,session,152.66441910000867,144.0,2.0,72.0,0.1,5,1.238964299991494,1.3515976999915438,0,1.538554299986572,1.65524199999345,7,1.5780953999928897,1.6948908000049414,,,,,30228,60.0,
77,77,90,0,-1,-1,0,0.0969100130080564,None,,,,,,,,,session,161.53715020000527,132.0,2.0,72.0,0.1,5,0.9223197999963304,1.0577147000003606,6,2.059371800001827,2.1593742999975802,1,2.4181126000039512,2.551649400003953,,,,,30228,60.0,
-77,77,-45,0,-1,-1,0,0.0969100130080564,None,,,,,,,,,session,170.89101690000098,150.0,2.0,72.0,0.1,2,0.9937233999953605,1.110407000000123,7,1.2133425000065472,1.3447232000035,7,2.675862399992184,2.8549823999928776,,,,,30228,60.0,
77,77,45,0,-1,-1,0,0.0969100130080564,None,,,,,,,,,session,180.08547390000604,162.0,2.0,72.0,0.1,5,0.5141143000073498,0.6469528000015998,1,1.1036328000045614,1.2349052999925334,7,1.6172507000010228,1.7003944000025513,,,,,30228,60.0,
,,,0,-1,-1,0,0.0969100130080564,None,materials/instructions\10_staircase_start.png,187.8068309000082,199.29416489999858,0,11.402461999998195,11.48524290000205,0.015671200002543628,11.500174799992237,,,,,,,,,,,,,,,,,,,,30228,60.0,
,,,0,0,-1,0,0.0969100130080564,0.1,,,,,,,,,staircase,199.31622069999867,126.0,2.0,72.0,0.1,,,,7,1.4191166999953566,1.5549740999995265,,,,0,,,,30228,60.0,
,,,0,1,-1,0,0.0969100130080564,0.125,,,,,,,,,staircase,204.88886679999996,144.0,2.0,72.0,0.125,,,,1,0.8486792999901809,0.982559099997161,,,,0,,,,30228,60.0,
,,,0,2,-1,0,0.0969100130080564,0.15625,,,,,,,,,staircase,209.60434700000042,156.0,2.0,72.0,0.15625,,,,7,0.6784065999963786,0.8121153999964008,,,,0,,,,30228,60.0,
,,,0,3,-1,0,0.0969100130080564,0.1953125,,,,,,,,,staircase,214.32389580000017,132.0,2.0,72.0,0.1953125,,,,6,0.34590359999856446,0.46200990000215825,,,,1,,,,30228,60.0,
,,,0,4,-1,0,0.0969100130080564,0.15625,,,,,,,,,staircase,218.29335290000017,168.0,2.0,72.0,0.15625,,,,1,0.4002494000014849,0.532762000002549,,,,0,,,,30228,60.0,
,,,0,5,-1,0,0.0969100130080564,0.1953125,,,,,,,,,staircase,223.1995109999989,156.0,2.0,72.0,0.1953125,,,,1,0.9603348999953596,1.0780696000001626,,,,0,,,,30228,60.0,
,,,0,6,-1,0,0.0969100130080564,0.244140625,,,,,,,,,staircase,228.3884565000044,174.0,2.0,72.0,0.244140625,,,,1,0.4262823000026401,0.526658500006306,,,,0,,,,30228,60.0,
,,,0,7,-1,0,0.0969100130080564,0.30517578125,,,,,,,,,staircase,233.122443500004,174.0,2.0,72.0,0.30517578125,,,,7,0.544280100002652,0.660758199999691,,,,0,,,,30228,60.0,
,,,0,8,-1,0,0.0969100130080564,0.3814697265625,,,,,,,,,staircase,237.99203790001047,132.0,2.0,72.0,0.3814697265625,,,,1,0.4103065999952378,0.5439700999995694,,,,0,,,,30228,60.0,
,,,0,9,-1,0,0.0969100130080564,0.476837158203125,,,,,,,,,staircase,242.04494410000916,156.0,2.0,72.0,0.476837158203125,,,,6,0.3608764000091469,0.4351576000044588,,,,1,,,,30228,60.0,
,,,0,10,-1,0,0.0969100130080564,0.476837158203125,,,,,,,,,staircase,246.9558751000004,150.0,2.0,72.0,0.476837158203125,,,,1,0.2877932999981567,0.4046809999999823,,,,0,,,,30228,60.0,
,,,0,11,-1,0,0.0969100130080564,0.5960464477539062,,,,,,,,,staircase,251.17305290000513,174.0,2.0,72.0,0.5960464477539062,,,,6,0.2798003000061726,0.3798108000046341,,,,1,,,,30228,60.0,
,,,0,12,-1,0,0.0969100130080564,0.5960464477539062,,,,,,,,,staircase,255.7713000000076,180.0,2.0,72.0,0.5960464477539062,,,,6,0.4631821999937529,0.5642616999975871,,,,1,,,,30228,60.0,
,,,0,13,-1,0,0.0969100130080564,0.476837158203125,,,,,,,,,staircase,260.6431193000026,126.0,2.0,72.0,0.476837158203125,,,,6,0.5789894999907119,0.6793849999958184,,,,1,,,,30228,60.0,
,,,0,14,-1,0,0.0969100130080564,0.476837158203125,,,,,,,,,staircase,264.7298293000058,168.0,2.0,72.0,0.476837158203125,,,,0,0.5541988000040874,0.6679655000043567,,,,1,,,,30228,60.0,
,,,0,15,-1,0,0.0969100130080564,0.3814697265625,,,,,,,,,staircase,270.16918730000907,132.0,2.0,72.0,0.3814697265625,,,,1,0.4784168000041973,0.5785423000052106,,,,0,,,,30228,60.0,
,,,0,16,-1,0,0.0969100130080564,0.476837158203125,,,,,,,,,staircase,274.25393240000994,126.0,2.0,72.0,0.476837158203125,,,,6,0.36090169999806676,0.4608924000058323,,,,1,,,,30228,60.0,
,,,0,17,-1,0,0.0969100130080564,0.476837158203125,,,,,,,,,staircase,278.1229178000067,144.0,2.0,72.0,0.476837158203125,,,,6,0.6503632999956608,0.734434500001953,,,,1,,,,30228,60.0,
,,,0,18,-1,0,0.0969100130080564,0.3814697265625,,,,,,,,,staircase,282.5600609000103,174.0,2.0,72.0,0.3814697265625,,,,1,0.44585299999744166,0.5452158999978565,,,,0,,,,30228,60.0,
,,,0,19,-1,0,0.0969100130080564,0.476837158203125,,,,,,,,,staircase,287.312691500003,162.0,2.0,72.0,0.476837158203125,,,,1,0.2873219000030076,0.3706965000019409,,,,0,,,,30228,60.0,
,,,0,20,-1,0,0.0969100130080564,0.5960464477539062,,,,,,,,,staircase,292.2689030000038,180.0,2.0,72.0,0.5960464477539062,,,,0,0.6086725000059232,0.7230873000080464,,,,1,,,,30228,60.0,
,,,0,21,-1,0,0.0969100130080564,0.5960464477539062,,,,,,,,,staircase,297.30351959999825,180.0,2.0,72.0,0.5960464477539062,,,,1,0.4777602000103798,0.561153300004662,,,,0,,,,30228,60.0,
,,,0,22,-1,0,0.0969100130080564,0.7450580596923828,,,,,,,,,staircase,302.1742547000031,162.0,2.0,72.0,0.7450580596923828,,,,7,0.7962017999961972,0.9463716000027489,,,,0,,,,30228,60.0,
,,,0,23,-1,0,0.0969100130080564,0.9313225746154785,,,,,,,,,staircase,307.12904090000666,162.0,2.0,72.0,0.9313225746154785,,,,6,0.5348518999962835,0.6678992999950424,,,,1,,,,30228,60.0,
,,,0,24,-1,0,0.0969100130080564,0.9313225746154785,,,,,,,,,staircase,312.1840976000094,168.0,2.0,72.0,0.9313225746154785,,,,1,0.4607949000055669,0.5610780999995768,,,,0,,,,30228,60.0,
,,,0,25,-1,0,0.0969100130080564,1,,,,,,,,,staircase,316.9889775000047,150.0,2.0,72.0,1,,,,1,0.5581570999929681,0.6916420999914408,,,,0,,,,30228,60.0,
,,,0,26,-1,0,0.0969100130080564,1,,,,,,,,,staircase,321.48827050000546,144.0,2.0,72.0,1,,,,1,0.3945714000001317,0.5285948000091594,,,,0,,,,30228,60.0,
,,,0,27,-1,0,0.0969100130080564,1,,,,,,,,,staircase,325.72577200000524,180.0,2.0,72.0,1,,,,0,0.4041521999897668,0.4696605999924941,,,,1,,,,30228,60.0,
,,,0,28,-1,0,0.0969100130080564,1,,,,,,,,,staircase,330.5120966000104,144.0,2.0,72.0,1,,,,0,0.6168608000007225,0.6853548000071896,,,,1,,,,30228,60.0,
,,,0,29,-1,0,0.0969100130080564,0.8,,,,,,,,,staircase,335.5410125000053,156.0,2.0,72.0,0.8,,,,7,1.0765304999949876,1.2580420000012964,,,,0,,,,30228,60.0,
,,,0,30,-1,0,0.0969100130080564,1.0,,,,,,,,,staircase,340.737535799999,132.0,2.0,72.0,1.0,,,,1,0.5618536999973003,0.6786615000019083,,,,0,,,,30228,60.0,
,,,0,31,-1,0,0.0969100130080564,1,,,,,,,,,staircase,344.92299459999776,150.0,2.0,72.0,1,,,,7,0.9140583999978844,1.0489378000056604,,,,0,,,,30228,60.0,
,,,0,32,-1,0,0.0969100130080564,1,,,,,,,,,staircase,349.77821020000556,138.0,2.0,72.0,1,,,,6,1.045934900001157,1.1691057999996701,,,,1,,,,30228,60.0,
,,,0,33,-1,0,0.0969100130080564,1,,,,,,,,,staircase,354.555744199999,138.0,2.0,72.0,1,,,,0,0.4551056000054814,0.5886682999989716,,,,1,,,,30228,60.0,
,,,0,34,-1,0,0.0969100130080564,0.8,,,,,,,,,staircase,359.23765750000894,132.0,2.0,72.0,0.8,,,,7,0.7754340000101365,0.8932044999965001,,,,0,,,,30228,60.0,
,,,0,35,-1,0,0.0969100130080564,1.0,,,,,,,,,staircase,363.6551824000053,162.0,2.0,72.0,1.0,,,,6,0.6082532000000356,0.7583094000001438,,,,1,,,,30228,60.0,
,,,0,36,-1,0,0.0969100130080564,1.0,,,,,,,,,staircase,368.42726880000555,156.0,2.0,72.0,1.0,,,,6,0.22795260000566486,0.011167300006491132,,,,1,,,,30228,60.0,
,,,0,37,-1,0,0.0969100130080564,0.8,,,,,,,,,staircase,372.56314480000583,180.0,2.0,72.0,0.8,,,,1,0.5004439999902388,0.011255599994910881,,,,0,,,,30228,60.0,
,,,0,38,-1,0,0.0969100130080564,1.0,,,,,,,,,staircase,377.7035249000037,162.0,2.0,72.0,1.0,,,,0,0.24869400000898167,0.010951999996905215,,,,1,,,,30228,60.0,
,,,0,39,-1,0,0.0969100130080564,1.0,,,,,,,,,staircase,382.1746451000072,168.0,2.0,72.0,1.0,,,,7,0.5284995999973034,0.011070499997003935,,,,0,,,,30228,60.0,
,,,0,40,-1,0,0.0969100130080564,1,,,,,,,,,staircase,386.80815209999855,174.0,2.0,72.0,1,,,,0,0.21337990000029095,0.011125000004540198,,,,1,,,,30228,60.0,
,,,0,41,-1,0,0.0969100130080564,1,,,,,,,,,staircase,391.2286662999977,180.0,2.0,72.0,1,,,,0,0.22555350000038743,0.010850699996808544,,,,1,,,,30228,60.0,
,,,0,42,-1,0,0.0969100130080564,0.8,,,,,,,,,staircase,395.7635713000054,156.0,2.0,72.0,0.8,,,,6,1.0247087000025203,0.01115340000251308,,,,1,,,,30228,60.0,
,,,0,43,-1,0,0.0969100130080564,0.8,,,,,,,,,staircase,401.1600380000018,150.0,2.0,72.0,0.8,,,,1,0.878640599999926,0.010919400010607205,,,,0,,,,30228,60.0,
,,,0,44,-1,0,0.0969100130080564,1.0,,,,,,,,,staircase,405.8589809999976,144.0,2.0,72.0,1.0,,,,1,0.29081639999640174,0.010940299995127134,,,,0,,,,30228,60.0,
,,,0,45,-1,0,0.0969100130080564,1,,,,,,,,,staircase,409.87516520000645,126.0,2.0,72.0,1,,,,6,0.5104498000000603,0.011080199998104945,,,,1,,,,30228,60.0,
,,,0,46,-1,0,0.0969100130080564,1,,,,,,,,,staircase,413.79417550000653,156.0,2.0,72.0,1,,,,1,0.7622994999983348,0.010971199997584336,,,,0,,,,30228,60.0,
,,,0,47,-1,0,0.0969100130080564,1,,,,,,,,,staircase,418.48226430000796,156.0,2.0,72.0,1,,,,7,0.5866937000100734,0.01123350000125356,,,,0,,,,30228,60.0,
,,,0,48,-1,0,0.0969100130080564,1,,,,,,,,,staircase,423.5766585000092,126.0,2.0,72.0,1,,,,0,0.2753867999999784,0.010978400008752942,,,,0,,,,30228,60.0,
,,,0,49,-1,0,0.0969100130080564,1,,,,,,,,,staircase,427.2738612000103,144.0,2.0,72.0,1,,,,7,0.6411318000027677,0.011037599993869662,,,,0,,,,30228,60.0,
,,,0,50,-1,0,0.0969100130080564,1,,,,,,,,,staircase,431.62456640000164,138.0,2.0,72.0,1,,,,0,0.5813194000074873,0.011048100001062267,,,,1,,,,30228,60.0,
,,,0,51,-1,0,0.0969100130080564,1,,,,,,,,,staircase,435.8283534000075,132.0,2.0,72.0,1,,,,0,1.495771700007026,0.012016199994832277,,,,1,,,,30228,60.0,
,,,0,52,-1,0,0.0969100130080564,0.8,,,,,,,,,staircase,440.83189860000857,144.0,2.0,72.0,0.8,,,,0,0.6226044000068214,0.011568300004000776,,,,1,,,,30228,60.0,
,,,0,53,-1,0,0.0969100130080564,0.8,,,,,,,,,staircase,445.7601072000107,168.0,2.0,72.0,0.8,,,,6,1.037199900005362,0.010986500012222677,,,,1,,,,30228,60.0,
,,,0,54,-1,0,0.0969100130080564,0.64,,,,,,,,,staircase,450.9253371000086,180.0,2.0,72.0,0.64,,,,1,0.9305735999951139,0.010857899993425235,,,,0,,,,30228,60.0,
,,,0,55,-1,0,0.0969100130080564,0.8,,,,,,,,,staircase,456.1769695999974,150.0,2.0,72.0,0.8,,,,0,0.5929769999929704,0.011281099999905564,,,,1,,,,30228,60.0,
,,,0,56,-1,0,0.0969100130080564,0.8,,,,,,,,,staircase,460.5822361000028,144.0,2.0,72.0,0.8,,,,1,0.4077376000059303,0.011013200011802837,,,,0,,,,30228,60.0,
,,,0,57,-1,0,0.0969100130080564,1.0,,,,,,,,,staircase,464.74362259999907,126.0,2.0,72.0,1.0,,,,7,0.32278329999826383,0.011388200000510551,,,,0,,,,30228,60.0,
,,,0,58,-1,0,0.0969100130080564,1,,,,,,,,,staircase,469.0731068000023,168.0,2.0,72.0,1,,,,1,0.5416477999970084,0.01090989999647718,,,,0,,,,30228,60.0,
,,,0,59,-1,0,0.0969100130080564,1,,,,,,,,,staircase,473.7242716000037,174.0,2.0,72.0,1,,,,0,0.38302790001034737,0.01109500000893604,,,,1,,,,30228,60.0,
,,,0,60,-1,0,0.0969100130080564,1,,,,,,,,,staircase,478.3135964999965,168.0,2.0,72.0,1,,,,7,0.7908402000030037,0.010898000007728115,,,,0,,,,30228,60.0,
,,,0,61,-1,0,0.0969100130080564,1,,,,,,,,,staircase,483.2321981999994,138.0,2.0,72.0,1,,,,6,0.8800942999951076,0.011038199998438358,,,,1,,,,30228,60.0,
,,,0,62,-1,0,0.0969100130080564,1,,,,,,,,,staircase,487.8094396000088,162.0,2.0,72.0,1,,,,6,0.8717987999989418,0.0115075999929104,,,,1,,,,30228,60.0,
,,,0,63,-1,0,0.0969100130080564,0.8,,,,,,,,,staircase,493.0408479000034,156.0,2.0,72.0,0.8,,,,0,0.4735316000005696,0.010913399994024076,,,,1,,,,30228,60.0,
,,,0,64,-1,0,0.0969100130080564,0.8,,,,,,,,,staircase,497.42555130000983,144.0,2.0,72.0,0.8,,,,1,0.5263929000066128,0.011212200013687834,,,,0,,,,30228,60.0,
,,,0,65,-1,0,0.0969100130080564,1.0,,,,,,,,,staircase,501.6614669999981,150.0,2.0,72.0,1.0,,,,7,0.6247328000026755,0.010922000001301058,,,,0,,,,30228,60.0,
,,,0,66,-1,0,0.0969100130080564,1,,,,,,,,,staircase,506.115870900001,126.0,2.0,72.0,1,,,,0,0.37429619999602437,0.011181399997440167,,,,1,,,,30228,60.0,
,,,0,67,-1,0,0.0969100130080564,1,,,,,,,,,staircase,510.16121220000787,138.0,2.0,72.0,1,,,,6,0.9278212999925017,0.010900499997660518,,,,1,,,,30228,60.0,
,,,0,68,-1,0,0.0969100130080564,0.8,,,,,,,,,staircase,515.0072223000025,168.0,2.0,72.0,0.8,,,,0,0.41646100000070874,0.011077000002842396,,,,1,,,,30228,60.0,
,,,0,69,-1,0,0.0969100130080564,0.8,,,,,,,,,staircase,519.526288100009,180.0,2.0,72.0,0.8,,,,7,0.7627119999960996,0.011110099992947653,,,,0,,,,30228,60.0,
,,,0,-1,-1,0,,,materials/instructions\11_session_start.png,524.6294007000106,545.0081770999968,0,20.376632600004086,0.042465100006666034,0.016649199998937547,20.384697699992103,,,,,,,,,,,,,,,,,,,,30228,60.0,
,,,0,-1,-1,0,,,,,,,,,,,,,,,,,,,,,,,,,,,0.9309999999999998,,,30228,60.0,
-77,-77,0,0,0,0,13,,,,,,,,,,,session,545.0250021000102,180.0,2.0,72.0,0.9309999999999998,3,0.503599600007874,0.6035123000037856,0,0.7454896999988705,0.8282723000011174,1,1.7235794000007445,1.8283454999909736,,,72.0,48.0,30228,60.0,
77,-77,45,0,1,1,10,,,,,,,,,,,session,554.7605018000031,126.0,2.0,72.0,0.9309999999999998,4,0.8751068999990821,0.9937768999952823,1,1.1783520000026328,1.2774013000016566,6,1.4348641999968095,1.5174552999960724,,,48.0,48.0,30228,60.0,
77,-77,-45,0,2,2,8,,,,,,,,,,,session,563.8590206000081,156.0,2.0,72.0,0.9309999999999998,4,1.9815347000112524,2.165031100012129,7,1.040933500000392,1.1258971999923233,7,2.018513700008043,2.101910900004441,,,57.0,51.0,30228,60.0,
77,77,45,0,3,3,2,,,,,,,,,,,session,575.0998094000097,126.0,2.0,72.0,0.9309999999999998,5,0.9803388000000268,1.0787074000108987,1,0.45833339999080636,0.5416508999915095,7,0.34905439999420196,0.448135699989507,,,48.0,63.0,30228,60.0,
-77,77,90,0,4,4,7,,,,,,,,,,,session,583.1602706999984,156.0,2.0,72.0,0.9309999999999998,2,1.0920100000075763,1.2088550000044052,6,1.0454821000021184,1.1454673999978695,7,0.2874115000013262,0.3876422999892384,,,66.0,57.0,30228,60.0,
77,77,0,0,5,5,1,,,,,,,,,,,session,591.9955177000083,180.0,2.0,72.0,0.9309999999999998,5,0.9304017999966163,1.0361621999909403,0,1.0860662999912165,1.1584868999925675,6,0.4988351999927545,0.5998093999951379,,,48.0,72.0,30228,60.0,
-77,77,-45,0,6,6,4,,,,,,,,,,,session,601.2427328000049,126.0,2.0,72.0,0.9309999999999998,2,0.6893721999949776,0.772813399991719,7,0.7635139000049094,0.9471503999957349,7,1.0509383000025991,1.1509866999986116,,,69.0,54.0,30228,60.0,
77,77,-45,0,7,7,0,,,,,,,,,,,session,609.7257148000062,180.0,2.0,72.0,0.9309999999999998,5,0.8980497000011383,1.03070079999452,7,0.5785016000008909,0.7113761999935377,6,1.35201029999007,1.4525079999875743,,,51.0,48.0,30228,60.0,
-77,77,45,0,8,8,6,,,,,,,,,,,session,619.0182356000005,174.0,2.0,72.0,0.9309999999999998,2,0.3895323000033386,0.4896240000089165,1,0.8709880000096746,0.9714145000034478,7,2.2181129999953555,2.3348906000028364,,,57.0,60.0,30228,60.0,
-77,-77,-45,0,9,9,12,,,,,,,,,,,session,629.7939808000083,132.0,2.0,72.0,0.9309999999999998,3,0.34637619998829905,0.46098049999272916,7,4.200679900008254,4.334518500007107,1,1.4540876999963075,1.5471850000030827,,,57.0,72.0,30228,60.0,
-77,-77,90,0,10,10,15,,,,,,,,,,,session,641.9273694000003,150.0,2.0,72.0,0.9309999999999998,3,0.8291144000104396,0.9118009000085294,6,0.8393312999978662,0.9883641000051284,7,0.8821435999998357,1.0154869999969378,,,57.0,48.0,30228,60.0,
77,-77,0,0,11,11,9,,,,,,,,,,,session,651.0415955000062,180.0,2.0,72.0,0.9309999999999998,4,0.6917977999983123,0.9426673999987543,0,1.0166016000002855,1.0832966000016313,6,1.2534821000008378,1.3855724000022747,,,54.0,54.0,30228,60.0,
77,-77,90,0,12,12,11,,,,,,,,,,,session,660.7165925000008,126.0,2.0,72.0,0.9309999999999998,4,0.6985607999959029,0.8318137000023853,6,1.1456447999953525,1.2594914999936009,6,1.8871062999969581,1.988124899988179,,,66.0,69.0,30228,60.0,
-77,77,0,0,13,13,5,,,,,,,,,,,session,670.8279546999984,126.0,2.0,72.0,0.9309999999999998,2,0.4979014999989886,0.5646347999863792,0,0.5360358000034466,0.6170689999999013,6,1.0006909999938216,1.0673913999926299,,,63.0,57.0,30228,60.0,
77,77,90,0,14,14,3,,,,,,,,,,,session,678.6279099000094,156.0,2.0,72.0,0.9309999999999998,5,0.898331500007771,1.014308500001789,6,0.7111497000005329,0.8119713000050979,7,1.1428174000029685,1.2100807999959216,,,48.0,48.0,30228,60.0,
-77,-77,45,0,15,15,14,,,,,,,,,,,session,687.3065688000061,168.0,2.0,72.0,0.9309999999999998,3,0.8472114999894984,0.9308058999886271,1,2.20614390000992,2.270668900004239,1,1.1743597000022419,1.2579430999903707,,,60.0,60.0,30228,60.0,
77,77,45,1,0,16,2,,,,,,,,,,,session,698.1978649000084,126.0,2.0,72.0,0.9309999999999998,5,0.8636247000104049,0.9470319000101881,1,1.44285820001096,1.5613975000014761,6,0.5700669000070775,0.6376130999997258,,,48.0,60.0,30228,60.0,
-77,77,0,1,1,17,5,,,,,,,,,,,session,706.6843831000006,156.0,2.0,72.0,0.9309999999999998,2,0.2925013000058243,0.3791163999994751,0,0.49213119999330956,0.5933472000033362,7,0.45261870000103954,0.6525622000044677,,,60.0,69.0,30228,60.0,
-77,-77,-45,1,2,18,12,,,,,,,,,,,session,715.112245700002,132.0,2.0,72.0,0.9309999999999998,3,0.6467364999989513,0.7467790999944555,7,0.531477199998335,0.6160148000053596,6,0.4864254999993136,0.6207369999901857,,,54.0,51.0,30228,60.0,
77,-77,90,1,3,19,11,,,,,,,,,,,session,722.4961474000011,138.0,2.0,72.0,0.9309999999999998,4,0.22994069999549538,0.4150571999925887,6,0.33102499999222346,0.41386109999439213,7,1.5912734000012279,1.7194016000139527,,,66.0,66.0,30228,60.0,
77,-77,90,1,3,19,11,,,materials/instructions\12_break.png,731.0748536000028,745.6610852000013,0,14.50080270000035,14.584115299992845,0.011831700001494028,14.59202809999988,,,,,,,,,,,,,,,,,,,,30228,60.0,
-77,77,45,1,4,20,6,,,,,,,,,,,session,745.6768658000074,180.0,2.0,72.0,0.9309999999999998,2,0.3874474000040209,0.4549505000031786,1,0.513634999995702,0.5969521999941207,7,0.29944840000825934,0.411681800003862,,,54.0,63.0,30228,60.0,
-77,-77,45,1,5,21,14,,,,,,,,,,,session,753.5570049000089,174.0,2.0,72.0,0.9309999999999998,3,0.8944519000069704,0.9778923999983817,1,0.39498579999781214,0.4967729999916628,6,0.9717593999957899,1.0718273999955272,,,57.0,54.0,30228,60.0,
77,77,90,1,6,22,3,,,,,,,,,,,session,762.4769462999975,126.0,2.0,72.0,0.9309999999999998,5,1.2954650000028778,1.3956906000094023,6,1.0648583000001963,1.132190599993919,6,1.633053799989284,1.733429599989904,,,57.0,48.0,30228,60.0,
-77,-77,90,1,7,23,15,,,,,,,,,,,session,772.0333892000053,162.0,2.0,72.0,0.9309999999999998,3,0.35978689999319613,0.4456540999963181,6,0.7973626000020886,0.8973387000005459,6,1.5709963999979664,1.6542401000042446,,,51.0,60.0,30228,60.0,
-77,77,-45,1,8,24,4,,,,,,,,,,,session,781.6110363000043,132.0,2.0,72.0,0.9309999999999998,2,0.3123271000076784,0.4124350000056438,7,0.7154634000035003,0.8489790000021458,6,10.295146300006309,10.331992100007483,,,66.0,66.0,30228,60.0,
-77,77,90,1,9,25,7,,,,,,,,,,,session,799.1292354000034,132.0,2.0,72.0,0.9309999999999998,2,0.5200825999927474,0.6008527999947546,6,0.6740982000046642,0.7784109000058379,6,1.8899196999991545,1.9900055000034627,,,51.0,60.0,30228,60.0,
77,-77,0,1,10,26,9,,,,,,,,,,,session,808.059680300008,126.0,2.0,72.0,0.9309999999999998,4,0.2849203000077978,0.4352725000062492,0,0.5963017000030959,0.6964391000074102,7,0.44955999999365304,0.5330305999959819,,,51.0,66.0,30228,60.0,
-77,-77,0,1,11,27,13,,,,,,,,,,,session,815.2336705000052,174.0,2.0,72.0,0.9309999999999998,3,0.3269895999983419,0.42441239999607205,0,0.30761819999315776,0.3915463000012096,6,1.9698250999936135,2.0689503999892622,,,69.0,48.0,30228,60.0,
77,-77,45,1,12,28,10,,,,,,,,,,,session,824.7419129000045,162.0,2.0,72.0,0.9309999999999998,4,0.2955917999934172,0.4122147999878507,1,0.41122990001167636,0.5057704000064405,6,1.4373282000015024,1.5386979000031715,,,69.0,63.0,30228,60.0,
77,77,-45,1,13,29,0,,,,,,,,,,,session,833.5311413000018,132.0,2.0,72.0,0.9309999999999998,5,0.19585709999955725,0.2965442999993684,7,0.528177100000903,0.5949489000049653,6,1.1452926000056323,1.2120930000091903,,,69.0,51.0,30228,60.0,
77,-77,-45,1,14,30,8,,,,,,,,,,,session,841.2625021999993,174.0,2.0,72.0,0.9309999999999998,4,0.24139119999017566,0.3755120999994688,7,0.59594250000373,0.7306169999937993,1,2.3348639000032563,2.450960500005749,,,66.0,72.0,30228,60.0,
77,77,0,1,15,31,1,,,,,,,,,,,session,851.7948386000062,138.0,2.0,72.0,0.9309999999999998,5,0.8642278999905102,1.115713399995002,0,0.31297349999658763,0.41136919999553356,1,0.6466119999968214,0.7471950999897672,,,48.0,69.0,30228,60.0,
-77,-77,0,2,0,32,13,,,,,,,,,,,session,859.7657228000025,132.0,2.0,72.0,0.9309999999999998,3,0.2562729999917792,0.3679701999935787,0,0.29525459998694714,0.45214259999920614,6,0.24780280000413768,0.3324002000008477,,,66.0,69.0,30228,60.0,
-77,-77,90,2,1,33,15,,,,,,,,,,,session,866.9108623000066,132.0,2.0,72.0,0.9309999999999998,3,0.421755099989241,0.5215090999990935,6,0.5814702000061516,0.7319050999940373,1,1.4575947999983327,1.574594799996703,,,57.0,63.0,30228,60.0,
77,-77,45,2,2,34,10,,,,,,,,,,,session,875.3801855000056,138.0,2.0,72.0,0.9309999999999998,4,0.2783603999996558,0.3956825000059325,1,0.3948456000071019,0.49544730001071,7,1.6187175000086427,1.7690565000084462,,,57.0,57.0,30228,60.0,
-77,-77,-45,2,3,35,12,,,,,,,,,,,session,883.7180375000025,132.0,2.0,72.0,0.9309999999999998,3,0.37775559999863617,0.47737469999992754,7,1.2104859999963082,1.3271443999983603,6,0.9512329999997746,1.0338617000088561,,,60.0,60.0,30228,60.0,
77,-77,-45,2,4,36,8,,,,,,,,,,,session,892.728894800006,132.0,2.0,72.0,0.9309999999999998,4,0.26088579998759087,0.39497799999662675,7,0.8119167000113521,0.9619338000047719,6,1.68765490000078,1.7543354999943404,,,54.0,57.0,30228,60.0,
77,-77,90,2,5,37,11,,,,,,,,,,,session,901.3351514000096,174.0,2.0,72.0,0.9309999999999998,4,0.31328170000051614,0.4633215000067139,6,1.129598999992595,1.2128521999984514,6,0.7500043000036385,0.8630653000000166,,,51.0,66.0,30228,60.0,
-77,77,45,2,6,38,6,,,,,,,,,,,session,910.1761165000062,132.0,2.0,72.0,0.9309999999999998,2,0.7324899999948684,0.8322096000047168,1,0.35741779999807477,0.4907476000080351,6,0.9495389000076102,1.0321219000034034,,,54.0,51.0,30228,60.0,
-77,77,0,2,7,39,5,,,,,,,,,,,session,917.9444663000031,162.0,2.0,72.0,0.9309999999999998,2,0.40409480000380427,0.5042396000062581,0,0.515004399989266,0.6327019999880577,6,0.28420890000415966,0.38445120000687893,,,48.0,66.0,30228,60.0,
-77,77,0,2,7,39,5,,,materials/instructions\12_break.png,925.5610540000052,947.3152446000022,0,21.65211239999917,21.752050800001598,0.024164600006770343,21.760020900008385,,,,,,,,,,,,,,,,,,,,30228,60.0,
-77,77,90,2,8,40,7,,,,,,,,,,,session,947.330947399998,126.0,2.0,72.0,0.9309999999999998,2,0.31644799999776296,0.4405752000020584,6,0.924555399993551,0.9911594000004698,1,1.0354833000019426,1.1196259999996983,,,54.0,48.0,30228,60.0,
77,77,0,2,9,41,1,,,,,,,,,,,session,955.1808734000078,156.0,2.0,72.0,0.9309999999999998,5,0.2931955000094604,0.39322399999946356,0,0.5486912999913329,0.6496830999967642,6,1.4532952000008663,1.5532779000059236,,,60.0,66.0,30228,60.0,
-77,77,-45,2,10,42,4,,,,,,,,,,,session,963.9308196000056,174.0,2.0,72.0,0.9309999999999998,2,0.2633116000070004,0.380925000004936,7,0.11425230000168085,0.23333869999623857,7,0.28464689999236725,0.3530629000015324,,,72.0,69.0,30228,60.0,
77,77,-45,2,11,43,0,,,,,,,,,,,session,971.5897362000105,132.0,2.0,72.0,0.9309999999999998,5,0.2574886000074912,0.35738169999967795,7,0.46246890000475105,0.5298838000016985,6,0.2033794000017224,0.27092360000824556,,,72.0,66.0,30228,60.0,
77,-77,0,2,12,44,9,,,,,,,,,,,session,979.3601511000015,180.0,2.0,72.0,0.9309999999999998,4,0.6976881000009598,0.8309245999989798,0,0.2974689999973634,0.3629178999981377,6,0.3354765999974916,0.418795500008855,,,63.0,60.0,30228,60.0,
77,77,45,2,13,45,2,,,,,,,,,,,session,987.4634034000046,168.0,2.0,72.0,0.9309999999999998,5,0.3754674000083469,0.4596873999980744,1,0.36430980000295676,0.4642195000051288,7,0.24912089999997988,0.3164989999932004,,,48.0,57.0,30228,60.0,
-77,-77,45,2,14,46,14,,,,,,,,,,,session,994.7036991000059,144.0,2.0,72.0,0.9309999999999998,3,1.0412911999883363,1.1413968999986537,7,0.39671110000927,0.46344210000825115,1,0.25755979999667034,0.35583869999391027,,,57.0,69.0,30228,60.0,
77,77,90,2,15,47,3,,,,,,,,,,,session,1003.2118824000063,144.0,2.0,72.0,0.9309999999999998,5,1.4100653999921633,1.4935499999992317,6,0.5583299999998417,0.6419374999968568,6,3.3258434000017587,3.4093823000002885,,,72.0,48.0,30228,60.0,
-77,-77,90,3,0,48,15,,,,,,,,,,,session,1014.7190324999974,156.0,2.0,72.0,0.9309999999999998,3,0.7594514999946114,0.9390216999890981,6,0.5448506999964593,0.627109199995175,7,0.40200410000397824,0.5020070000027772,,,54.0,48.0,30228,60.0,
77,77,45,3,1,49,2,,,,,,,,,,,session,1022.9614453000104,156.0,2.0,72.0,0.9309999999999998,5,0.3587721999938367,0.4926255000027595,1,1.0986294000031194,1.1810842000122648,1,0.2737641999992775,0.3737531999940984,,,63.0,72.0,30228,60.0,
77,77,90,3,2,50,3,,,,,,,,,,,session,1031.2974350000004,126.0,2.0,72.0,0.9309999999999998,5,0.2788906999921892,0.4439418999972986,6,0.2826039999927161,0.3994010000023991,6,1.1650435000046855,1.2484165000059875,,,48.0,60.0,30228,60.0,
77,77,0,3,3,51,1,,,,,,,,,,,session,1038.7365168999968,162.0,2.0,72.0,0.9309999999999998,5,0.3412919999973383,0.5042844999989029,0,0.32645140000386164,0.39516010000079405,7,0.4500862999993842,0.585371799999848,,,57.0,60.0,30228,60.0,
-77,-77,-45,3,4,52,12,,,,,,,,,,,session,1046.865298100005,168.0,2.0,72.0,0.9309999999999998,3,0.24967289999767672,0.3688503000012133,7,0.36343280000437517,0.4634496999933617,6,1.1032317000062903,1.2529618999978993,,,72.0,57.0,30228,60.0,
-77,77,0,3,5,53,5,,,,,,,,,,,session,1055.3503242000006,168.0,2.0,72.0,0.9309999999999998,2,0.3077978999936022,0.3905393000022741,0,0.8036267999996198,0.8936390000017127,7,2.0424302000028547,2.1459538000053726,,,51.0,48.0,30228,60.0,
77,-77,0,3,6,54,9,,,,,,,,,,,session,1064.6815521000099,162.0,2.0,72.0,0.9309999999999998,4,0.25691890000598505,0.39017330000933725,0,0.2615183000016259,0.37811830001010094,6,0.38582989999849815,0.5185216999961995,,,63.0,48.0,30228,60.0,
-77,-77,0,3,7,55,13,,,,,,,,,,,session,1071.9973265000008,132.0,2.0,72.0,0.9309999999999998,3,0.011377999995602295,0.36501949999365024,0,0.3620031999889761,0.47886589998961426,7,0.5342079000110971,0.7857023000105983,,,69.0,72.0,30228,60.0,
-77,-77,45,3,8,56,14,,,,,,,,,,,session,1079.6184214000095,174.0,2.0,72.0,0.9309999999999998,3,0.011387500009732321,0.14578900000196882,1,0.838368900003843,0.9221287999971537,6,0.3621490000077756,0.5955112999945413,,,60.0,48.0,30228,60.0,
77,-77,45,3,9,57,10,,,,,,,,,,,session,1087.7115791000106,144.0,2.0,72.0,0.9309999999999998,4,0.3958876999968197,0.6104169000027468,1,0.4081499000021722,0.5268548000021838,7,0.3681141999986721,0.46821259999705944,,,69.0,66.0,30228,60.0,
77,77,-45,3,10,58,0,,,,,,,,,,,session,1095.4128884000093,132.0,2.0,72.0,0.9309999999999998,5,0.2973533999902429,0.3974675999925239,7,0.5122852999920724,0.6121186999953352,6,0.5375881999934791,0.6881971999973757,,,69.0,66.0,30228,60.0,
-77,77,45,3,11,59,6,,,,,,,,,,,session,1103.0035602999997,156.0,2.0,72.0,0.9309999999999998,2,1.6403128999954788,1.7736027999926591,1,0.44312039999931585,0.5597110999951838,1,1.2071360999980243,1.3557690999878105,,,66.0,51.0,30228,60.0,
-77,77,45,3,11,59,6,,,materials/instructions\12_break.png,1113.0819266000035,1139.1107692000078,0,25.927416299993638,26.026704299991252,0.01460850000148639,26.034644200000912,,,,,,,,,,,,,,,,,,,,30228,60.0,
-77,77,90,3,12,60,7,,,,,,,,,,,session,1139.126245300009,150.0,2.0,72.0,0.9309999999999998,2,0.2648756999988109,0.36498650000430644,6,0.2969243999978062,0.39814839999598917,1,1.2682389999972656,1.43369609999354,,,69.0,66.0,30228,60.0,
-77,77,-45,3,13,61,4,,,,,,,,,,,session,1147.5367373000045,138.0,2.0,72.0,0.9309999999999998,2,0.01092090000747703,0.01282990000618156,7,0.25880019999749493,0.47538279999571387,7,0.27962669999396894,0.4128550000023097,,,60.0,66.0,30228,60.0,
77,-77,90,3,14,62,11,,,,,,,,,,,session,1154.793751899997,132.0,2.0,72.0,0.9309999999999998,4,0.30961630000092555,0.459796200011624,6,0.4062071999942418,0.4739030000055209,6,0.28271800000220537,0.3827673999912804,,,57.0,54.0,30228,60.0,
77,-77,-45,3,15,63,8,,,,,,,,,,,session,1161.6300034000014,180.0,2.0,72.0,0.9309999999999998,4,0.2842662000039127,0.3676681000069948,7,0.25938879999739584,0.34281339999870397,6,0.26717040000949055,0.35053009999683127,,,48.0,66.0,30228,60.0,
77,77,0,4,0,64,1,,,,,,,,,,,session,1169.0223497999978,132.0,2.0,72.0,0.9309999999999998,5,0.34063560000504367,0.41228550000232644,0,0.3935510000010254,0.4602664999983972,1,0.4508874999883119,0.5366509000014048,,,63.0,54.0,30228,60.0,
-77,77,-45,4,1,65,4,,,,,,,,,,,session,1176.381219300005,144.0,2.0,72.0,0.9309999999999998,2,0.36239159999240655,0.445043200001237,7,0.2785738999955356,0.37856640000245534,1,0.6057197000045562,0.6892843999958131,,,69.0,72.0,30228,60.0,
77,-77,0,4,2,66,9,,,,,,,,,,,session,1184.097086499998,174.0,2.0,72.0,0.9309999999999998,4,0.29843999999866355,0.39841819999855943,0,0.44220590000622906,0.5253873000037856,7,0.44988280000688974,0.5185314999980619,,,66.0,66.0,30228,60.0,
-77,-77,90,4,3,67,15,,,,,,,,,,,session,1192.0719918000104,132.0,2.0,72.0,0.9309999999999998,3,0.26699369998823386,0.35426179999194574,6,0.32624930000747554,0.41288460000941996,6,0.28350969999155495,0.3657340999925509,,,66.0,57.0,30228,60.0,
77,77,45,4,4,68,2,,,,,,,,,,,session,1199.3780103000026,180.0,2.0,72.0,0.9309999999999998,5,0.24012510001193732,0.32283570000436157,1,0.4499114000063855,0.5499852000066312,7,0.7527900999994017,0.8696119999949588,,,69.0,51.0,30228,60.0,
77,-77,-45,4,5,69,8,,,,,,,,,,,session,1207.5651492000034,174.0,2.0,72.0,0.9309999999999998,4,0.16278739999688696,0.34568129999388475,7,0.40949109999928623,0.5929832999972859,7,0.3713919000001624,0.6237321999942651,,,60.0,54.0,30228,60.0,
-77,-77,45,4,6,70,14,,,,,,,,,,,session,1215.393219400008,150.0,2.0,72.0,0.9309999999999998,3,0.47636070000589825,0.60700309999811,7,1.561126400003559,1.6625325999921188,1,0.5975763999886112,0.7478093999961857,,,48.0,69.0,30228,60.0,
77,77,90,4,7,71,3,,,,,,,,,,,session,1224.9293288000044,156.0,2.0,72.0,0.9309999999999998,5,0.34379910001007374,0.39379510001163,6,0.46409559999301564,0.5309086999914143,6,0.2693848000053549,0.35228780000761617,,,48.0,72.0,30228,60.0,
-77,-77,0,4,8,72,13,,,,,,,,,,,session,1232.2514279000025,126.0,2.0,72.0,0.9309999999999998,3,0.34577230000286363,0.4290344000037294,0,0.43231980000564363,0.5372841000062181,7,0.4929326999990735,0.5813855000014883,,,69.0,48.0,30228,60.0,
77,77,-45,4,9,73,0,,,,,,,,,,,session,1239.2987683999963,132.0,2.0,72.0,0.9309999999999998,5,0.39127550000557676,0.4745816000067862,7,0.33116440000594594,0.414761100008036,7,0.13566299999365583,0.2359848000050988,,,51.0,66.0,30228,60.0,
-77,77,90,4,10,74,7,,,,,,,,,,,session,1246.315503100006,156.0,2.0,72.0,0.9309999999999998,2,0.26442030000907835,0.33116630000586156,6,0.5682177999988198,0.6359536999952979,6,0.011894499999471009,0.01378110000223387,,,48.0,72.0,30228,60.0,
-77,-77,-45,4,11,75,12,,,,,,,,,,,session,1253.3257218000072,174.0,2.0,72.0,0.9309999999999998,3,0.2449429000116652,0.3465852000081213,7,0.264764000006835,0.36422879999736324,7,0.2628660000045784,0.34591469999577384,,,63.0,54.0,30228,60.0,
77,-77,90,4,12,76,11,,,,,,,,,,,session,1260.6819587000064,180.0,2.0,72.0,0.9309999999999998,4,0.9724494999973103,1.0890706000063801,6,0.5945030999864684,0.711226399987936,6,1.183186399997794,1.2832740000012564,,,54.0,54.0,30228,60.0,
-77,77,0,4,13,77,5,,,,,,,,,,,session,1270.5139526999992,156.0,2.0,72.0,0.9309999999999998,2,0.01330269999743905,0.11271380000107456,0,0.2490972000086913,0.3993227000028128,7,0.26978539999981876,0.41976960000465624,,,66.0,51.0,30228,60.0,
77,-77,45,4,14,78,10,,,,,,,,,,,session,1277.4547565000103,132.0,2.0,72.0,0.9309999999999998,4,0.04219629999715835,0.17719129999750294,1,0.2535074000043096,0.3584171999973478,6,0.24354730000777636,0.31034930000896566,,,66.0,60.0,30228,60.0,
-77,77,45,4,15,79,6,,,,,,,,,,,session,1284.0778569000104,144.0,2.0,72.0,0.9309999999999998,2,0.16151710000121966,0.32974909999757074,1,0.3427361999929417,0.4603161999984877,7,0.2843127999949502,0.38435769999341574,,,69.0,48.0,30228,60.0,
-77,77,45,4,15,79,6,,,materials/instructions\12_break.png,1291.2206273000047,1313.0112055000063,0,21.705186100007268,21.78858050001145,0.009964600001694635,21.79625010000018,,,,,,,,,,,,,,,,,,,,30228,60.0,
-77,77,-45,5,0,80,4,,,,,,,,,,,session,1313.0274353999994,174.0,2.0,72.0,0.9309999999999998,2,0.25332230000640266,0.32003430000622757,7,0.3319783000042662,0.4820529999997234,1,0.5580477000039537,0.655971900006989,,,48.0,69.0,30228,60.0,
-77,77,0,5,1,81,5,,,,,,,,,,,session,1320.7860998000106,168.0,2.0,72.0,0.9309999999999998,2,0.2320865999936359,0.31307550000201445,0,0.24277970001276117,0.3261890000139829,6,0.24586739999358542,0.3301336000004085,,,63.0,54.0,30228,60.0,
77,-77,90,5,2,82,11,,,,,,,,,,,session,1327.9649643000012,126.0,2.0,72.0,0.9309999999999998,4,0.24122329999227077,0.3732533999864245,6,0.3421230999956606,0.44213669998862315,1,0.4051876000012271,0.5050017000030493,,,69.0,51.0,30228,60.0,
77,-77,0,5,3,83,9,,,,,,,,,,,session,1335.082966300004,168.0,2.0,72.0,0.9309999999999998,4,0.2965708999981871,0.4281232999928761,0,0.22732609999366105,0.34635680000064895,6,0.40295279999554623,0.486278799988213,,,48.0,48.0,30228,60.0,
77,77,45,5,4,84,2,,,,,,,,,,,session,1342.2006525000033,150.0,2.0,72.0,0.9309999999999998,5,0.012607999989995733,0.08954909999738447,1,0.2602487999974983,0.34383869999146555,7,0.25837150000734255,0.341210400001728,,,57.0,57.0,30228,60.0,
77,77,90,5,5,85,3,,,,,,,,,,,session,1348.843505900004,168.0,2.0,72.0,0.9309999999999998,5,0.010516499998630024,0.012302799994358793,6,0.3600404000026174,0.4755621000076644,6,1.4643782999919495,1.5459808000014164,,,57.0,60.0,30228,60.0,
-77,-77,90,5,6,86,15,,,,,,,,,,,session,1357.6308647999977,132.0,2.0,72.0,0.9309999999999998,3,0.4295472000085283,0.5128760000079637,6,1.305759399998351,1.422552900010487,6,0.7497939000022598,0.8354006000008667,,,54.0,54.0,30228,60.0,
77,77,-45,5,7,87,0,,,,,,,,,,,session,1365.8556180000014,168.0,2.0,72.0,0.9309999999999998,5,0.042847899996559136,0.17779149999842048,7,0.2595094999996945,0.4762886999960756,7,0.3480039999994915,0.4144444999983534,,,51.0,60.0,30228,60.0,
-77,-77,0,5,8,88,13,,,,,,,,,,,session,1373.016892700005,144.0,2.0,72.0,0.9309999999999998,3,0.24991169999702834,0.3835996999987401,0,0.07299230000353418,0.24029139999765903,1,0.2999627999961376,0.34995689999777824,,,66.0,72.0,30228,60.0,
77,77,0,5,9,89,1,,,,,,,,,,,session,1380.162948199999,168.0,2.0,72.0,0.9309999999999998,5,0.1674570000031963,0.4174207000032766,0,0.3130680000031134,0.5632337999995798,7,0.25266610000107903,0.43568659998709336,,,63.0,66.0,30228,60.0,
-77,-77,-45,5,10,90,12,,,,,,,,,,,session,1387.9866792999965,144.0,2.0,72.0,0.9309999999999998,3,0.11230849999992643,0.27961740001046564,7,0.3075276000017766,0.45762139999715146,7,0.25025140000798274,0.42837920000602026,,,51.0,51.0,30228,60.0,
77,-77,-45,5,11,91,8,,,,,,,,,,,session,1394.7114101000043,174.0,2.0,72.0,0.9309999999999998,4,0.010896200008573942,0.14573810000729281,7,0.41240580000157934,0.512358599997242,6,0.5815277000074275,0.6816073000081815,,,51.0,63.0,30228,60.0,
-77,77,90,5,12,92,7,,,,,,,,,,,session,1402.3799671000015,168.0,2.0,72.0,0.9309999999999998,2,0.15983410000626463,0.2598396999965189,6,0.38188840000657365,0.4669212000007974,6,0.23495209999964572,0.33555750000232365,,,54.0,72.0,30228,60.0,
-77,-77,45,5,13,93,14,,,,,,,,,,,session,1409.7863305000064,180.0,2.0,72.0,0.9309999999999998,3,0.5604561000072863,0.8616939000057755,1,1.2568094000016572,1.360656700009713,1,0.6987092999916058,0.8153252999909455,,,69.0,66.0,30228,60.0,
-77,77,45,5,14,94,6,,,,,,,,,,,session,1419.547626200001,180.0,2.0,72.0,0.9309999999999998,2,0.2591792000021087,0.39295839999977034,1,0.32394159999967087,0.40737889999581967,1,0.23564769999939017,0.33461560000432655,,,57.0,54.0,30228,60.0,
77,-77,45,5,15,95,10,,,,,,,,,,,session,1427.017233400009,132.0,2.0,72.0,0.9309999999999998,4,0.09563729999354109,0.26297329999215435,1,0.34624330000951886,0.44683850000728853,7,0.15135850000660866,0.2516066999960458,,,69.0,54.0,30228,60.0,
77,-77,90,6,0,96,11,,,,,,,,,,,session,1433.671378500003,180.0,2.0,72.0,0.9309999999999998,4,0.012290500002563931,0.014237499999580905,6,0.3911004999972647,0.4768283000012161,6,1.1311430000059772,1.200192500007688,,,60.0,69.0,30228,60.0,
-77,-77,45,6,1,97,14,,,,,,,,,,,session,1442.2336641000002,180.0,2.0,72.0,0.9309999999999998,3,0.3257141999929445,0.4090816999960225,1,0.44504600000800565,0.5283062000089558,7,0.271082799998112,0.3868095999932848,,,63.0,63.0,30228,60.0,
77,-77,0,6,2,98,9,,,,,,,,,,,session,1450.0991944999987,150.0,2.0,72.0,0.9309999999999998,4,0.01139280000643339,0.10183610000240151,0,0.25924319999467116,0.37594430000171997,7,0.2360465999954613,0.3199382000020705,,,54.0,57.0,30228,60.0,
77,77,45,6,3,99,2,,,,,,,,,,,session,1456.6729709000065,168.0,2.0,72.0,0.9309999999999998,5,0.011268200003542006,0.013201000008848496,1,0.37811770000553224,0.4938285999960499,7,0.35040270000172313,0.40140750000136904,,,66.0,54.0,30228,60.0,
77,77,45,6,3,99,2,,,materials/instructions\12_break.png,1464.4490084999998,1494.516439900006,0,29.99715739999374,30.065294699990773,0.0165493999957107,30.071660400004475,,,,,,,,,,,,,,,,,,,,30228,60.0,
77,-77,45,6,4,100,10,,,,,,,,,,,session,1494.5305834000028,144.0,2.0,72.0,0.9309999999999998,4,0.028504099987912923,0.1637742999882903,1,0.09074499999405816,0.1742299999896204,7,0.06902290000289213,0.18819580000126734,,,57.0,54.0,30228,60.0,
77,77,-45,6,5,101,0,,,,,,,,,,,session,1500.7565248000028,144.0,2.0,72.0,0.9309999999999998,5,0.011107399986940436,0.012994399992749095,7,0.057572799996705726,0.19334410000010394,6,0.232098100008443,0.28393160000268836,,,72.0,60.0,30228,60.0,
-77,77,45,6,6,102,6,,,,,,,,,,,session,1507.8150806000049,126.0,2.0,72.0,0.9309999999999998,2,0.011273899988736957,0.0131890999909956,1,0.295638700001291,0.36229250000906177,1,0.26734940000460483,0.36665399999765214,,,69.0,60.0,30228,60.0,
-77,77,0,6,7,103,5,,,,,,,,,,,session,1514.2653244999965,174.0,2.0,72.0,0.9309999999999998,2,0.2823195999953896,0.3649596999894129,0,0.3459716999932425,0.39513499999884516,7,0.23580239999864716,0.3042903000023216,,,54.0,51.0,30228,60.0,
77,-77,-45,6,8,104,8,,,,,,,,,,,session,1521.422391,150.0,2.0,72.0,0.9309999999999998,4,0.011059800002840348,0.01295370000298135,7,0.3298703999898862,0.4147944999858737,7,0.2632376999972621,0.3506958000070881,,,54.0,54.0,30228,60.0,
77,77,0,6,9,105,1,,,,,,,,,,,session,1528.068347499997,138.0,2.0,72.0,0.9309999999999998,5,0.14248850000149105,0.24203040001157206,0,0.4933801000006497,0.5920699999987846,6,0.6050979999999981,0.7203034999984084,,,57.0,57.0,30228,60.0,
-77,-77,0,6,10,106,13,,,,,,,,,,,session,1535.2859320999996,156.0,2.0,72.0,0.9309999999999998,3,0.3181527999986429,0.4181300999916857,0,0.19285750000562984,0.3410476999997627,7,0.1852900999947451,0.26782510000339244,,,69.0,51.0,30228,60.0,
-77,77,-45,6,11,107,4,,,,,,,,,,,session,1542.369995400004,132.0,2.0,72.0,0.9309999999999998,2,0.2643649999954505,0.3310805000073742,7,0.1507863000006182,0.2747533000074327,6,0.25284539999847766,0.31937979999929667,,,69.0,48.0,30228,60.0,
-77,-77,90,6,12,108,15,,,,,,,,,,,session,1548.8841609000083,144.0,2.0,72.0,0.9309999999999998,3,0.05591450000065379,0.1570685000042431,6,0.4267892999923788,0.4940104999986943,6,0.1403851999930339,0.24042139999801293,,,54.0,57.0,30228,60.0,
-77,-77,-45,6,13,109,12,,,,,,,,,,,session,1555.7157439000002,144.0,2.0,72.0,0.9309999999999998,3,0.01102619999437593,0.1085560999927111,7,0.3295399000053294,0.44673780001176056,7,0.01135489999433048,0.013224299997091293,,,51.0,51.0,30228,60.0,
77,77,90,6,14,110,3,,,,,,,,,,,session,1561.8233011999982,132.0,2.0,72.0,0.9309999999999998,5,0.19725489999109413,0.2806667999975616,6,0.48129599999811035,0.5812182999943616,7,0.7359743999986676,0.819381199995405,,,60.0,51.0,30228,60.0,
-77,77,90,6,15,111,7,,,,,,,,,,,session,1568.9913434000046,126.0,2.0,72.0,0.9309999999999998,2,0.2742292000039015,0.34124990001146216,6,0.3944210000045132,0.4769298000028357,7,1.1161951999965822,1.2497594000014942,,,54.0,66.0,30228,60.0,
77,77,45,7,0,112,2,,,,,,,,,,,session,1577.336065399999,162.0,2.0,72.0,0.9309999999999998,5,0.3935254999960307,0.46036219999950845,1,0.3510396999918157,0.4354209000011906,7,0.2876222999911988,0.3709797999908915,,,72.0,51.0,30228,60.0,
77,77,90,7,1,113,3,,,,,,,,,,,session,1584.8017681000056,144.0,2.0,72.0,0.9309999999999998,5,0.8090522999991663,0.9266786999942269,6,0.5274468999996316,0.6130937999987509,7,0.8304183999862289,0.9138391999877058,,,69.0,54.0,30228,60.0,
-77,77,90,7,2,114,7,,,,,,,,,,,session,1593.1686217000097,144.0,2.0,72.0,0.9309999999999998,2,0.13024810000206344,0.2121093000023393,6,0.25916159999906085,0.3255215999961365,6,0.1728554000001168,0.2400682000006782,,,51.0,48.0,30228,60.0,
77,77,-45,7,3,115,0,,,,,,,,,,,session,1599.6501137000014,150.0,2.0,72.0,0.9309999999999998,5,0.26054640000802465,0.31058580000535585,7,0.22860529999888968,0.2955948000017088,6,0.01180390000808984,0.013699900009669363,,,57.0,72.0,30228,60.0,
-77,-77,-45,7,4,116,12,,,,,,,,,,,session,1606.3610273000086,156.0,2.0,72.0,0.9309999999999998,3,0.010956900005112402,0.07847639999818057,7,0.29552260000491515,0.3791137000080198,6,0.011184199989656918,0.08295699999143835,,,60.0,72.0,30228,60.0,
-77,77,45,7,5,117,6,,,,,,,,,,,session,1613.1558325000078,144.0,2.0,72.0,0.9309999999999998,2,0.2031126000074437,0.26966730000276584,1,0.24268569999549072,0.31004419999953825,6,1.1776404999982333,1.2262546999991173,,,57.0,63.0,30228,60.0,
77,-77,0,7,6,118,9,,,,,,,,,,,session,1621.4847446000058,174.0,2.0,72.0,0.9309999999999998,4,0.011267800000496209,0.09362260000489186,0,0.41188440000405535,0.5307807000062894,6,0.5819085000111954,0.7153206000075443,,,63.0,72.0,30228,60.0,
-77,77,-45,7,7,119,4,,,,,,,,,,,session,1629.4394507999968,156.0,2.0,72.0,0.9309999999999998,2,0.21625199999834877,0.3471175000013318,7,0.4482459999999264,0.5815131000126712,6,0.5307940999919083,0.6411445999983698,,,69.0,60.0,30228,60.0,
-77,77,-45,7,7,119,4,,,materials/instructions\12_break.png,1637.2593854000006,1661.6133477999974,0,24.218714800008456,24.351820000010775,0.01808280000113882,24.359991100005573,,,,,,,,,,,,,,,,,,,,30228,60.0,
77,77,0,7,8,120,1,,,,,,,,,,,session,1661.6295084000012,162.0,2.0,72.0,0.9309999999999998,5,0.24681450000207406,0.3288617000071099,0,0.01085340000281576,0.012886399999842979,1,1.2528176000050735,1.3360989000066184,,,69.0,66.0,30228,60.0,
-77,77,0,7,9,121,5,,,,,,,,,,,session,1669.7180122999998,138.0,2.0,72.0,0.9309999999999998,2,1.2944865000026766,1.3779316000000108,0,0.4973042999918107,0.6146810999925947,6,0.36810140000307,0.4347066000045743,,,66.0,48.0,30228,60.0,
-77,-77,90,7,10,122,15,,,,,,,,,,,session,1677.790823800009,180.0,2.0,72.0,0.9309999999999998,3,0.01109580000047572,0.013040899997577071,6,0.41749910000362433,0.5003089999954682,6,0.7638117000024067,0.8639075999963097,,,63.0,72.0,30228,60.0,
77,-77,-45,7,11,123,8,,,,,,,,,,,session,1686.5318261000066,162.0,2.0,72.0,0.9309999999999998,4,2.0443725000077393,2.1618602000089595,0,0.8006325000023935,0.9507592000009026,0,0.5881366999965394,0.6714928000001237,,,57.0,60.0,30228,60.0,
77,-77,45,7,12,124,10,,,,,,,,,,,session,1696.4058041000098,144.0,2.0,72.0,0.9309999999999998,4,0.011929200001759455,0.1286480999988271,1,0.39837479998823255,0.5985424999962561,1,1.2255108000099426,1.363684200012358,,,48.0,48.0,30228,60.0,
-77,-77,45,7,13,125,14,,,,,,,,,,,session,1703.95203510001,132.0,2.0,72.0,0.9309999999999998,3,0.2125755000015488,0.312547599998652,1,0.27079650000086986,0.44008000000030734,6,0.7987781999981962,0.9823116999905324,,,48.0,66.0,30228,60.0,
77,-77,90,7,14,126,11,,,,,,,,,,,session,1711.3999466000096,126.0,2.0,72.0,0.9309999999999998,4,0.0109119999979157,0.07343540000147186,6,0.4276912000059383,0.5277171000052476,6,0.6215173999953549,0.8049046999949496,,,63.0,54.0,30228,60.0,
-77,-77,0,7,15,127,13,,,,,,,,,,,session,1718.3037766000052,180.0,2.0,72.0,0.9309999999999998,3,0.2292435999988811,0.32937250001123175,0,0.010777000003145076,0.012824199991882779,7,0.6356623999890871,0.7009954999957699,,,72.0,57.0,30228,60.0,
77,-77,-45,8,0,128,8,,,,,,,,,,,session,1725.9709698000079,144.0,2.0,72.0,0.9309999999999998,4,0.01235959999030456,0.1565827000013087,7,0.4646453999885125,0.5979319999896688,6,1.1526698999950895,1.2369315999967512,,,57.0,60.0,30228,60.0,
-77,-77,90,8,1,129,15,,,,,,,,,,,session,1733.902633500009,168.0,2.0,72.0,0.9309999999999998,3,0.09829540000646375,0.21670299999823328,6,0.09636090000276454,0.2637426000001142,6,0.13668199999665376,0.26993100000254344,,,63.0,48.0,30228,60.0,
-77,-77,-45,8,2,130,12,,,,,,,,,,,session,1740.7385881000082,150.0,2.0,72.0,0.9309999999999998,3,0.01105509999615606,0.012956099992152303,7,0.2657053000002634,0.3657898999954341,7,0.7808356000023196,0.8642359999939799,,,54.0,54.0,30228,60.0,
-77,-77,45,8,3,131,14,,,,,,,,,,,session,1747.7356856999977,126.0,2.0,72.0,0.9309999999999998,3,0.07251949999772478,0.17352759999630507,1,0.42862659999809694,0.5786195000109728,6,0.010826400000951253,0.07567759999074042,,,54.0,63.0,30228,60.0,
-77,77,0,8,4,132,5,,,,,,,,,,,session,1754.300633699997,144.0,2.0,72.0,0.9309999999999998,2,0.7133476999879349,0.8289864999969723,0,0.011002300001564436,0.29465960001107305,1,0.5058475999976508,0.6393743000080576,,,66.0,69.0,30228,60.0,
77,77,90,8,5,133,3,,,,,,,,,,,session,1762.1539154000056,138.0,2.0,72.0,0.9309999999999998,5,0.2631846000003861,0.3309319999971194,6,0.1946073000144679,0.2942539000068791,6,0.6477197000058368,0.7148425000050338,,,63.0,54.0,30228,60.0,
-77,77,90,8,6,134,7,,,,,,,,,,,session,1769.202763399997,162.0,2.0,72.0,0.9309999999999998,2,0.010900000008405186,0.03675170001224615,6,0.22679950000019744,0.31262160000915173,7,0.15178120000928175,0.2351764000050025,,,63.0,54.0,30228,60.0,
77,77,0,8,7,135,1,,,,,,,,,,,session,1776.3375401000085,138.0,2.0,72.0,0.9309999999999998,5,0.010976799996569753,0.01289369999722112,0,0.26134759999695234,0.3614838000066811,6,0.03315560000191908,0.15133740000601392,,,69.0,72.0,30228,60.0,
77,-77,45,8,8,136,10,,,,,,,,,,,session,1782.9694316000096,174.0,2.0,72.0,0.9309999999999998,4,0.011137200010125525,0.11182580000604503,1,0.1945854999939911,0.3113736999948742,7,0.238409400000819,0.3543140000110725,,,69.0,51.0,30228,60.0,
77,-77,0,8,9,137,9,,,,,,,,,,,session,1790.093381700004,174.0,2.0,72.0,0.9309999999999998,4,0.011921299999812618,0.03244049999921117,0,0.09513960000185762,0.21206180000444874,6,0.034408799998345785,0.2566576000099303,,,60.0,54.0,30228,60.0,
77,77,-45,8,10,138,0,,,,,,,,,,,session,1797.5032775,168.0,2.0,72.0,0.9309999999999998,5,0.010844300006283447,0.10941540000203531,7,0.1473971000086749,0.29723749999538995,7,0.1324151000007987,0.21484489999420475,,,66.0,57.0,30228,60.0,
77,77,45,8,11,139,2,,,,,,,,,,,session,1804.4358813,126.0,2.0,72.0,0.9309999999999998,5,0.010933599987765774,0.07796519999101292,1,0.700220700004138,0.8825408999982756,6,0.0345789999992121,0.13551410000945907,,,48.0,66.0,30228,60.0,
77,77,45,8,11,139,2,,,materials/instructions\12_break.png,1811.0048164000036,1830.0694267000072,0,18.963391500001308,19.06272380000155,0.021440399999846704,19.071341500006383,,,,,,,,,,,,,,,,,,,,30228,60.0,
-77,-77,0,8,12,140,13,,,,,,,,,,,session,1830.0859276999981,174.0,2.0,72.0,0.9309999999999998,3,0.08124889999453444,0.16605050000362098,0,0.010917000006884336,0.012833400003728457,1,0.0777483999991091,0.16511819999141153,,,66.0,66.0,30228,60.0,
-77,77,-45,8,13,141,4,,,,,,,,,,,session,1837.0155190000078,132.0,2.0,72.0,0.9309999999999998,2,0.010833899999852292,0.012762400001520291,7,0.15865430000121705,0.2762580999988131,6,0.010989999995217659,0.012872699997387826,,,57.0,66.0,30228,60.0,
-77,77,45,8,14,142,6,,,,,,,,,,,session,1843.0647743000009,174.0,2.0,72.0,0.9309999999999998,2,0.01084310001169797,0.012753700008033775,1,0.25622979999752715,0.35630980000132695,7,0.010954400000628084,0.10317400000349153,,,60.0,69.0,30228,60.0,
77,-77,90,8,15,143,11,,,,,,,,,,,session,1850.0371594000026,126.0,2.0,72.0,0.9309999999999998,4,0.010876700005610473,0.027467199994134717,6,0.2793288999964716,0.3467856999923242,7,0.06553779999376275,0.15252190000319388,,,48.0,66.0,30228,60.0,
-77,-77,0,9,0,144,13,,,,,,,,,,,session,1856.0116969000082,174.0,2.0,72.0,0.9309999999999998,3,0.01180180000665132,0.013747700009844266,0,0.5468051000061678,0.6298593000101391,7,0.01102159998845309,0.1132552999915788,,,54.0,57.0,30228,60.0,
-77,-77,90,9,1,145,15,,,,,,,,,,,session,1863.632652900007,174.0,2.0,72.0,0.9309999999999998,3,0.09239149998757057,0.21094619999348652,6,0.011036700001568533,0.012935799997649156,6,0.7148320999986026,0.7981738999951631,,,72.0,60.0,30228,60.0,
77,77,45,9,2,146,2,,,,,,,,,,,session,1871.2032947999978,150.0,2.0,72.0,0.9309999999999998,5,0.8626466999994591,0.9458996000030311,1,0.39223079998919275,0.5240703000017675,6,0.5056723000016063,0.5452649000071688,,,69.0,51.0,30228,60.0,
77,-77,90,9,3,147,11,,,,,,,,,,,session,1879.1700534999982,174.0,2.0,72.0,0.9309999999999998,4,0.011736599990399554,0.013650499997311272,6,0.27925549999054056,0.32932930000242777,7,0.20040400000289083,0.2511213999969186,,,72.0,57.0,30228,60.0,
-77,77,0,9,4,148,5,,,,,,,,,,,session,1886.8184293000086,150.0,2.0,72.0,0.9309999999999998,2,0.48250759999791626,0.5640091999957804,0,0.2674062000005506,0.3341649000067264,6,0.07017269999778364,0.12040139999589883,,,63.0,69.0,30228,60.0,
-77,77,45,9,5,149,6,,,,,,,,,,,session,1893.9699687999964,138.0,2.0,72.0,0.9309999999999998,2,0.04266010000719689,0.21190439999918453,1,0.7153924999875017,0.7990747000003466,7,0.08613599999807775,0.18904090000432916,,,69.0,60.0,30228,60.0,
77,-77,0,9,6,150,9,,,,,,,,,,,session,1901.078241700001,156.0,2.0,72.0,0.9309999999999998,4,0.4045534999895608,0.5889861999894492,0,0.10579119999601971,0.1724499999982072,7,0.5410412000055658,0.641220899997279,,,72.0,57.0,30228,60.0,
77,77,90,9,7,151,3,,,,,,,,,,,session,1909.2367552000069,150.0,2.0,72.0,0.9309999999999998,5,0.010908900003414601,0.012831800006097183,6,0.4070287000067765,0.5071119000058388,6,0.24033960000087973,0.32147470000199974,,,48.0,51.0,30228,60.0,
-77,-77,-45,9,8,152,12,,,,,,,,,,,session,1915.6877539999987,168.0,2.0,72.0,0.9309999999999998,3,0.5108934000018053,0.710848700007773,7,0.010836899993591942,0.012804500001948327,1,0.05464380000194069,0.15504640000290237,,,66.0,57.0,30228,60.0,
-77,77,-45,9,9,153,4,,,,,,,,,,,session,1922.9594566000014,132.0,2.0,72.0,0.9309999999999998,2,0.28799689999141265,0.3578263999952469,7,0.012240500000189058,0.04079650000494439,7,0.010851900005945936,0.08539170000585727,,,63.0,72.0,30228,60.0,
77,-77,-45,9,10,154,8,,,,,,,,,,,session,1929.899330900007,144.0,2.0,72.0,0.9309999999999998,4,0.02421899999899324,0.2929640000074869,7,0.161877699996694,0.27742980000039097,7,0.32126709999283776,0.419855699990876,,,72.0,69.0,30228,60.0,
77,77,-45,9,11,155,0,,,,,,,,,,,session,1937.104262000008,168.0,2.0,72.0,0.9309999999999998,5,0.15577319999283645,0.3076015999977244,7,0.2971846000000369,0.37982020000345074,7,0.42045460001099855,0.4594389999983832,,,72.0,63.0,30228,60.0,
77,77,0,9,12,156,1,,,,,,,,,,,session,1944.7521590000106,150.0,2.0,72.0,0.9309999999999998,5,0.011588199995458126,0.08962099999189377,0,0.2386010000045644,0.33761100000992883,6,0.6654460999998264,0.7664905999990879,,,57.0,60.0,30228,60.0,
-77,-77,45,9,13,157,14,,,,,,,,,,,session,1952.487294000006,180.0,2.0,72.0,0.9309999999999998,3,0.011010899994289503,0.012924199996632524,7,3.465848100007861,3.579945300007239,1,0.2530637000018032,0.37171990000933874,,,69.0,48.0,30228,60.0,
77,-77,45,9,14,158,10,,,,,,,,,,,session,1962.8589839000051,180.0,2.0,72.0,0.9309999999999998,4,0.0107616000022972,0.029533599998103455,1,0.4263572999916505,0.5362727999890922,7,0.5938426999928197,0.6808608999999706,,,60.0,60.0,30228,60.0,
-77,77,90,9,15,159,7,,,,,,,,,,,session,1970.6717036000045,144.0,2.0,72.0,0.9309999999999998,2,0.17435180000029504,0.2752208000019891,6,0.42398279999906663,0.4906999000086216,7,0.3331032999994932,0.43416509999951813,,,60.0,72.0,30228,60.0,
-77,77,90,9,15,159,7,,,materials/instructions\12_break.png,1977.9604497999971,2008.4391467000096,0,30.376574900001287,30.47665720000805,0.010031400001025759,30.48445139999967,,,,,,,,,,,,,,,,,,,,30228,60.0,
77,77,90,10,0,160,3,,,,,,,,,,,session,2008.4546826000005,132.0,2.0,72.0,0.9309999999999998,5,0.2810272999922745,0.3478387999930419,6,0.41027209999447223,0.4770401999994647,1,0.28184490000421647,0.38173059999826364,,,72.0,69.0,30228,60.0,
77,-77,45,10,1,161,10,,,,,,,,,,,session,2015.8018591,132.0,2.0,72.0,0.9309999999999998,4,0.03365219999977853,0.13684570000623353,1,0.21041449999029282,0.31070919999910984,6,0.050204200000735,0.18653209999320097,,,60.0,66.0,30228,60.0,
-77,77,-45,10,2,162,4,,,,,,,,,,,session,2022.1704605999985,180.0,2.0,72.0,0.9309999999999998,2,0.060376200010068715,0.16141690000949893,7,0.1320314999902621,0.35005709998949897,7,0.01103049999801442,0.0129255999927409,,,60.0,60.0,30228,60.0,
77,-77,90,10,3,163,11,,,,,,,,,,,session,2029.1359496000077,144.0,2.0,72.0,0.9309999999999998,4,0.011173600010806695,0.013095100002828985,6,0.17610810000041965,0.275264200012316,6,0.010869699995964766,0.012633699996513315,,,48.0,69.0,30228,60.0,
77,77,45,10,4,164,2,,,,,,,,,,,session,2035.2313454999967,126.0,2.0,72.0,0.9309999999999998,5,0.011113700005807914,0.013054399998509325,1,0.2781362999958219,0.39590010000392795,7,0.16867489999276586,0.2675228000007337,,,69.0,51.0,30228,60.0,
-77,-77,45,10,5,165,14,,,,,,,,,,,session,2041.604952499998,180.0,2.0,72.0,0.9309999999999998,3,0.01091360001009889,0.012843600008636713,1,0.4109018999879481,0.5277161999983946,6,0.4242205000045942,0.5742840000020806,,,66.0,51.0,30228,60.0,
77,-77,0,10,6,166,9,,,,,,,,,,,session,2049.1225543000037,150.0,2.0,72.0,0.9309999999999998,4,0.010873199993511662,0.06230669999786187,0,0.2969007000065176,0.39709210000000894,6,0.010806599995703436,0.012765999999828637,,,51.0,66.0,30228,60.0,
-77,77,90,10,7,167,7,,,,,,,,,,,session,2055.5009710000013,150.0,2.0,72.0,0.9309999999999998,2,0.10518150001007598,0.22418930000276305,6,0.010985799992340617,0.11209949999465607,7,0.2774692000093637,0.3433411000005435,,,69.0,66.0,30228,60.0,
77,-77,-45,10,8,168,8,,,,,,,,,,,session,2062.972529699997,150.0,2.0,72.0,0.9309999999999998,4,0.010997000004863366,0.013065500010270625,7,0.9794541000010213,1.0128433000063524,6,0.32438239999464713,0.40637040000001434,,,57.0,48.0,30228,60.0,
77,77,-45,10,9,169,0,,,,,,,,,,,session,2070.088159200008,174.0,2.0,72.0,0.9309999999999998,5,0.010867699995287694,0.01276629998756107,7,0.6465702999994392,0.6623184999916703,6,0.7969404000032227,0.8569919000001391,,,60.0,63.0,30228,60.0,
-77,-77,90,10,10,170,15,,,,,,,,,,,session,2078.0148772999964,174.0,2.0,72.0,0.9309999999999998,3,0.11207950000243727,0.24557859999185894,6,0.3819281000032788,0.46561970000038855,7,0.041865499995765276,0.1428237999934936,,,48.0,51.0,30228,60.0,
-77,77,0,10,11,171,5,,,,,,,,,,,session,2085.402300600006,138.0,2.0,72.0,0.9309999999999998,2,0.40576140000484884,0.5226011000049766,0,0.2307096000004094,0.3298866000113776,6,0.4488652000000002,0.48215900000650436,,,51.0,63.0,30228,60.0,
77,77,0,10,12,172,1,,,,,,,,,,,session,2092.3732593000022,144.0,2.0,72.0,0.9309999999999998,5,0.010908800002653152,0.07560179999563843,0,0.2767566000111401,0.376742300009937,7,0.384102999989409,0.4842746999929659,,,48.0,57.0,30228,60.0,
-77,-77,-45,10,13,173,12,,,,,,,,,,,session,2098.9120292000007,174.0,2.0,72.0,0.9309999999999998,3,0.03660239999589976,0.1592841999954544,7,0.010861700007808395,0.012787000014213845,1,0.218110700006946,0.318105900005321,,,72.0,48.0,30228,60.0,
-77,77,45,10,14,174,6,,,,,,,,,,,session,2106.452354000008,168.0,2.0,72.0,0.9309999999999998,2,0.02557269998942502,0.17858569999225438,1,0.011125999997602776,0.062022199999773875,7,0.20359819999430329,0.3193782999878749,,,69.0,57.0,30228,60.0,
-77,-77,0,10,15,175,13,,,,,,,,,,,session,2113.354432100008,126.0,2.0,72.0,0.9309999999999998,3,0.05267149998690002,0.15689089999068528,0,0.01101429999107495,0.06300090000149794,7,0.010956899990560487,0.01287729998875875,,,69.0,72.0,30228,60.0,
-77,77,0,11,0,176,5,,,,,,,,,,,session,2119.474963700006,144.0,2.0,72.0,0.9309999999999998,2,0.28929600000265054,0.35571610000624787,0,0.19364310000673868,0.26012469999841414,6,0.4363004000042565,0.5011097000096925,,,63.0,60.0,30228,60.0,
-77,-77,0,11,1,177,13,,,,,,,,,,,session,2126.7852505000046,132.0,2.0,72.0,0.9309999999999998,3,0.011216999992029741,0.013119499999447726,0,0.09270419999666046,0.1594448999967426,7,0.3536335000098916,0.40326269999786746,,,69.0,48.0,30228,60.0,
-77,77,90,11,2,178,7,,,,,,,,,,,session,2132.9541410000093,150.0,2.0,72.0,0.9309999999999998,2,0.010954400000628084,0.012804899990442209,6,0.3654975999961607,0.4488188999966951,6,1.3036277999926824,1.4017748000042047,,,69.0,60.0,30228,60.0,
77,77,-45,11,3,179,0,,,,,,,,,,,session,2140.910981699999,162.0,2.0,72.0,0.9309999999999998,5,0.010856599998078309,0.012767299995175563,7,0.010818599999765866,0.0604923999926541,7,0.011070200009271502,0.012930800003232434,,,69.0,72.0,30228,60.0,
77,77,-45,11,3,179,0,,,materials/instructions\12_break.png,2147.7736019000004,2162.6404874,0,14.781574399996316,14.864914499994484,0.014224900005501695,14.872923600007198,,,,,,,,,,,,,,,,,,,,30228,60.0,
77,-77,90,11,4,180,11,,,,,,,,,,,session,2162.656237300005,150.0,2.0,72.0,0.9309999999999998,4,0.011199800006579608,0.01305809999757912,6,0.16605719999643043,0.2396288000018103,6,0.21210350000183098,0.31591829999524634,,,51.0,54.0,30228,60.0,
-77,77,-45,11,5,181,4,,,,,,,,,,,session,2169.1396750999993,156.0,2.0,72.0,0.9309999999999998,2,0.010753000009572133,0.01267060000100173,7,0.4092952999926638,0.49262829999497626,6,0.4856566000089515,0.6348656000045594,,,63.0,60.0,30228,60.0,
77,-77,0,11,6,182,9,,,,,,,,,,,session,2176.4054189000017,138.0,2.0,72.0,0.9309999999999998,4,0.011415499990107492,0.5139186000014888,0,0.011022499995306134,0.14492130000144243,7,0.011011599999619648,0.012948200004757382,,,51.0,63.0,30228,60.0,
-77,77,45,11,7,183,6,,,,,,,,,,,session,2182.7184698000056,144.0,2.0,72.0,0.9309999999999998,2,0.011021600003005005,0.012952200006111525,1,0.011042700003599748,0.04413510000449605,6,0.01207799999974668,0.014013900014106184,,,66.0,72.0,30228,60.0,
-77,-77,90,11,8,184,15,,,,,,,,,,,session,2188.9494694000023,156.0,2.0,72.0,0.9309999999999998,3,0.011131899998872541,0.03472480000345968,6,0.010972200005198829,0.12940350000280887,7,0.20437659999879543,0.35324620000028517,,,57.0,51.0,30228,60.0,
77,-77,-45,11,9,185,8,,,,,,,,,,,session,2195.7903626000043,144.0,2.0,72.0,0.9309999999999998,4,0.011026799998944625,0.11445300000195857,7,0.3959978999919258,0.4959986000030767,6,0.011013800001819618,0.012856900008046068,,,69.0,72.0,30228,60.0,
77,77,45,11,10,186,2,,,,,,,,,,,session,2202.6117897000076,156.0,2.0,72.0,0.9309999999999998,5,0.14789469999959692,0.34783700000843965,1,0.37864860000263434,0.52867560001323,7,0.21603879999020137,0.2994219999964116,,,72.0,48.0,30228,60.0,
77,-77,45,11,11,187,10,,,,,,,,,,,session,2209.8286557999963,162.0,2.0,72.0,0.9309999999999998,4,0.012075999999069609,0.031746300010127015,1,0.35666619999392424,0.4430099000019254,6,0.18347170000197366,0.25040350000199396,,,57.0,48.0,30228,60.0,
77,77,90,11,12,188,3,,,,,,,,,,,session,2217.2187320000085,138.0,2.0,72.0,0.9309999999999998,5,0.010957900012726896,0.01284690000466071,6,0.011352700006682426,0.013293200012412854,6,0.6867178999964381,0.7529501999961212,,,63.0,66.0,30228,60.0,
-77,-77,45,11,13,189,14,,,,,,,,,,,session,2223.890153100001,174.0,2.0,72.0,0.9309999999999998,3,0.24659650000103284,0.39652120000391733,1,0.01088609998987522,0.11319929998717271,7,0.4568232000019634,0.5376210000104038,,,57.0,51.0,30228,60.0,
77,77,0,11,14,190,1,,,,,,,,,,,session,2231.0809433999966,162.0,2.0,72.0,0.9309999999999998,5,0.01094169999123551,0.012836800000513904,0,0.011605099993175827,0.01355729998613242,6,0.04759590000321623,0.14845020000939257,,,72.0,60.0,30228,60.0,
-77,-77,-45,11,15,191,12,,,,,,,,,,,session,2238.3524789000076,150.0,2.0,72.0,0.9309999999999998,3,0.010991499992087483,0.012899499997729436,7,0.01091640000231564,0.10895619999791961,6,0.2547290999937104,0.3381807999976445,,,63.0,48.0,30228,60.0,
77,-77,-45,12,0,192,8,,,,,,,,,,,session,2244.621750899998,150.0,2.0,72.0,0.9309999999999998,4,0.41521859999920707,0.6009059000061825,7,0.7176097999908961,0.9007159999891883,1,0.45117519999621436,0.6014012999949045,,,69.0,66.0,30228,60.0,
77,-77,0,12,1,193,9,,,,,,,,,,,session,2252.931183599998,174.0,2.0,72.0,0.9309999999999998,4,0.010774900001706555,0.012687099995673634,0,0.010982899999362417,0.09496030000445899,1,0.05380469998635817,0.13762929999211337,,,72.0,66.0,30228,60.0,
77,-77,90,12,2,194,11,,,,,,,,,,,session,2260.435879900004,144.0,2.0,72.0,0.9309999999999998,4,1.0448258999967948,1.1948229999979958,6,0.010868700002902187,0.012771200010320172,1,0.4515771999867866,0.568262999993749,,,66.0,63.0,30228,60.0,
-77,77,0,12,3,195,5,,,,,,,,,,,session,2268.2062515,168.0,2.0,72.0,0.9309999999999998,2,0.4605130999989342,0.5457677999947919,0,0.12822379999852274,0.18083040000055917,7,0.22442790000059176,0.32334580000315327,,,60.0,57.0,30228,60.0,
77,77,45,12,4,196,2,,,,,,,,,,,session,2275.44560810001,132.0,2.0,72.0,0.9309999999999998,5,0.011480799992568791,0.013456999993650243,1,0.5115501000109361,0.5781425000022864,6,0.010809300001710653,0.012738100005663,,,51.0,69.0,30228,60.0,
-77,77,45,12,5,197,6,,,,,,,,,,,session,2282.444920000009,138.0,2.0,72.0,0.9309999999999998,2,0.010837000008905306,0.012743600003886968,1,0.7131056000071112,0.8296720000071218,6,0.15134630000102334,0.26814300000842195,,,66.0,60.0,30228,60.0,
-77,-77,45,12,6,198,14,,,,,,,,,,,session,2289.4226269000064,138.0,2.0,72.0,0.9309999999999998,3,0.1297614000068279,0.29639079999469686,1,0.4619051999907242,0.5778568999958225,1,0.23670510000374634,0.336661199995433,,,54.0,60.0,30228,60.0,
-77,-77,90,12,7,199,15,,,,,,,,,,,session,2296.2783154000062,150.0,2.0,72.0,0.9309999999999998,3,0.22403810000105295,0.3574185000034049,6,0.5234997999941697,0.5742909999971744,7,0.2846659999922849,0.335320900005172,,,51.0,66.0,30228,60.0,
-77,-77,90,12,7,199,15,,,materials/instructions\12_break.png,2304.062784000009,2330.7030846999987,0,26.53814720000082,26.638299900005222,0.02268249999906402,26.64600849999988,,,,,,,,,,,,,,,,,,,,30228,60.0,
77,-77,45,12,8,200,10,,,,,,,,,,,session,2330.7192388999974,156.0,2.0,72.0,0.9309999999999998,4,0.01119049999397248,0.013122399992425926,1,0.011525699999765493,0.09580539999296889,7,0.011675299989292398,0.06665129998873454,,,69.0,60.0,30228,60.0,
-77,77,90,12,9,201,7,,,,,,,,,,,session,2337.1066736000066,174.0,2.0,72.0,0.9309999999999998,2,0.024201600012020208,0.1072555000137072,6,0.010964100001729093,0.012862600007792935,7,0.26087479999114294,0.3276140999951167,,,69.0,54.0,30228,60.0,
-77,-77,0,12,10,202,13,,,,,,,,,,,session,2343.9684590000106,126.0,2.0,72.0,0.9309999999999998,3,0.011809700008598156,0.013669599997228943,0,0.27748189998965245,0.3768644999945536,6,0.011124399999971502,0.013022400002228096,,,48.0,72.0,30228,60.0,
-77,77,-45,12,11,203,4,,,,,,,,,,,session,2350.3186461000005,138.0,2.0,72.0,0.9309999999999998,2,0.012313100000028498,0.06649559999641497,7,0.24340510000183713,0.29347239999333397,6,0.40097160000004806,0.4676898999896366,,,60.0,57.0,30228,60.0,
77,77,0,12,12,204,1,,,,,,,,,,,session,2356.839901900006,180.0,2.0,72.0,0.9309999999999998,5,0.47651910000422504,0.5443755000014789,0,0.29278099999646656,0.3594989999983227,7,0.25341339998703916,0.33678739999595564,,,54.0,54.0,30228,60.0,
-77,-77,-45,12,13,205,12,,,,,,,,,,,session,2364.330638700005,138.0,2.0,72.0,0.9309999999999998,3,0.011244199995417148,0.03444099999614991,7,0.2949829999997746,0.3428085000050487,6,0.010848100006114691,0.0477450000034878,,,51.0,69.0,30228,60.0,
77,77,-45,12,14,206,0,,,,,,,,,,,session,2371.0526406999998,126.0,2.0,72.0,0.9309999999999998,5,0.6424719999922672,0.710926699990523,7,0.36097110000264365,0.42728340000030585,7,0.20222869999997783,0.28571070000180043,,,51.0,60.0,30228,60.0,
77,77,90,12,15,207,3,,,,,,,,,,,session,2377.873928700006,156.0,2.0,72.0,0.9309999999999998,5,0.39802580000832677,0.4813624000089476,6,0.01073940000787843,0.07640190000529401,1,0.2551260000036564,0.3381548000033945,,,66.0,51.0,30228,60.0,
-77,77,45,13,0,208,6,,,,,,,,,,,session,2384.7624807999964,174.0,2.0,72.0,0.9309999999999998,2,0.011343300007865764,0.013170100006391294,1,0.26278580000507645,0.34390710000297986,7,0.4050594000000274,0.5226278999907663,,,63.0,54.0,30228,60.0,
77,77,90,13,1,209,3,,,,,,,,,,,session,2392.6399482999987,150.0,2.0,72.0,0.9309999999999998,5,0.2936436000018148,0.36032520000298973,6,0.31485460000112653,0.38162909999664407,6,0.25207610000506975,0.31883570000354666,,,51.0,54.0,30228,60.0,
-77,-77,-45,13,2,210,12,,,,,,,,,,,session,2399.4063223999983,132.0,2.0,72.0,0.9309999999999998,3,0.15325210000446532,0.23703309999837074,7,0.011080500000389293,0.012997600002563559,1,0.270801599996048,0.337338199999067,,,69.0,66.0,30228,60.0,
-77,-77,45,13,3,211,14,,,,,,,,,,,session,2405.8975827000104,156.0,2.0,72.0,0.9309999999999998,3,0.010794200003147125,0.012747300002956763,1,0.2433879999880446,0.35399089999555144,6,0.05068710001069121,0.13513810001313686,,,69.0,60.0,30228,60.0,
77,77,-45,13,4,212,0,,,,,,,,,,,session,2412.738071400003,156.0,2.0,72.0,0.9309999999999998,5,0.011445800002547912,0.01352249999763444,7,0.37723820000246633,0.42722630000207573,6,0.2055763999960618,0.2874147999973502,,,57.0,48.0,30228,60.0,
-77,77,0,13,5,213,5,,,,,,,,,,,session,2419.275908900003,162.0,2.0,72.0,0.9309999999999998,2,0.07976129998860415,0.19845849998819176,0,0.2615651000087382,0.34501520000048913,6,2.926165699987905,2.9926405000005616,,,48.0,66.0,30228,60.0,
77,-77,0,13,6,214,9,,,,,,,,,,,session,2428.8647842000064,162.0,2.0,72.0,0.9309999999999998,4,0.011277599987806752,0.01323949999641627,0,0.3218511999875773,0.4087647999986075,7,0.010812199994688854,0.033633700004429556,,,51.0,63.0,30228,60.0,
77,77,45,13,7,215,2,,,,,,,,,,,session,2436.019164700003,156.0,2.0,72.0,0.9309999999999998,5,0.21237249999830965,0.29580029999488033,1,0.29647250000562053,0.3634743000002345,7,0.048973500001011416,0.1164954999985639,,,51.0,66.0,30228,60.0,
77,77,0,13,8,216,1,,,,,,,,,,,session,2442.787926300007,174.0,2.0,72.0,0.9309999999999998,5,0.010755499999504536,0.09435660000599455,0,0.3182707000087248,0.3992848000052618,7,0.3821559000061825,0.4999343000090448,,,63.0,48.0,30228,60.0,
-77,-77,0,13,9,217,13,,,,,,,,,,,session,2449.9789346000034,126.0,2.0,72.0,0.9309999999999998,3,0.15804690000368282,0.22457659999781754,0,0.0861735999933444,0.19075029999658,6,0.010964800007059239,0.01286100001016166,,,69.0,72.0,30228,60.0,
-77,-77,90,13,10,218,15,,,,,,,,,,,session,2456.3472391000105,162.0,2.0,72.0,0.9309999999999998,3,0.2565632999903755,0.33992709999438375,6,0.011510699987411499,0.044730499997967854,7,0.20291849999921396,0.2850341000012122,,,66.0,60.0,30228,60.0,
77,-77,-45,13,11,219,8,,,,,,,,,,,session,2463.2554279000033,180.0,2.0,72.0,0.9309999999999998,4,0.6763382000062848,0.7429362999973819,7,0.1591776999994181,0.2275799999915762,7,0.3182342000072822,0.38617370001156814,,,69.0,66.0,30228,60.0,
77,-77,-45,13,11,219,8,,,materials/instructions\12_break.png,2471.341191200001,2492.3944932000013,0,20.931786800007103,21.05011550000927,0.021513200001209043,21.056101599999238,,,,,,,,,,,,,,,,,,,,30228,60.0,
-77,77,90,13,12,220,7,,,,,,,,,,,session,2492.4068654000002,144.0,2.0,72.0,0.9309999999999998,2,0.09746429999358952,0.1654734999901848,6,0.27992160001304,0.34749870000814553,6,0.08008539999718778,0.1495085999922594,,,60.0,54.0,30228,60.0,
77,-77,45,13,13,221,10,,,,,,,,,,,session,2498.8581888000044,180.0,2.0,72.0,0.9309999999999998,4,0.010813500004587695,0.012655099999392405,1,0.08937560000049416,0.18921579999732785,7,0.0118363999936264,0.013674799993168563,,,57.0,54.0,30228,60.0,
77,-77,90,13,14,222,11,,,,,,,,,,,session,2505.6855917000066,144.0,2.0,72.0,0.9309999999999998,4,0.010879800000111572,0.012829799990868196,6,0.4962706999940565,0.529616799991345,6,0.010861500006285496,0.012739900004817173,,,51.0,72.0,30228,60.0,
-77,77,-45,13,15,223,4,,,,,,,,,,,session,2512.1382714000065,174.0,2.0,72.0,0.9309999999999998,2,0.010960599989630282,0.04403959999035578,7,0.01077929999155458,0.012759399993228726,7,0.08431120000022929,0.1528872000053525,,,57.0,48.0,30228,60.0,
-77,77,45,14,0,224,6,,,,,,,,,,,session,2518.464279599997,138.0,2.0,72.0,0.9309999999999998,2,0.010913300007814541,0.012834799999836832,1,0.29573109999182634,0.36338929999328684,1,0.23156880000897218,0.28150350000942126,,,48.0,48.0,30228,60.0,
-77,-77,45,14,1,225,14,,,,,,,,,,,session,2525.1209137999977,174.0,2.0,72.0,0.9309999999999998,3,0.03816989999904763,0.15619819999847095,1,0.010933300000033341,0.02557469999010209,6,0.08659410000836942,0.13669440000376198,,,60.0,54.0,30228,60.0,
77,-77,45,14,2,226,10,,,,,,,,,,,session,2531.6894676000084,132.0,2.0,72.0,0.9309999999999998,4,0.6664734999940265,0.7660390999953961,1,0.011246599999140017,0.013168100005714223,6,0.010828099999343976,0.012709500006167218,,,72.0,72.0,30228,60.0,
77,-77,0,14,3,227,9,,,,,,,,,,,session,2538.524261300001,156.0,2.0,72.0,0.9309999999999998,4,0.010764099992229603,0.012649599986616522,0,0.32210469999699853,0.4239285999938147,7,0.681426700000884,0.7291912000073353,,,66.0,48.0,30228,60.0,
-77,77,0,14,4,228,5,,,,,,,,,,,session,2545.8711772000097,132.0,2.0,72.0,0.9309999999999998,2,0.15706689999205992,0.2738109999918379,0,0.011079300005803816,0.06583770000725053,1,0.18369520000123885,0.28401809999195393,,,66.0,60.0,30228,60.0,
77,77,45,14,5,229,2,,,,,,,,,,,session,2552.239405500004,132.0,2.0,72.0,0.9309999999999998,5,0.011321500001940876,0.013308400011737831,1,0.010843199997907504,0.012762400001520291,6,0.236686499993084,0.36849929999152664,,,69.0,57.0,30228,60.0,
-77,-77,90,14,6,230,15,,,,,,,,,,,session,2558.3953002000053,174.0,2.0,72.0,0.9309999999999998,3,0.42564969998784363,0.5583893000002718,6,0.03299409999453928,0.1095223000011174,6,0.025107699999352917,0.09250069998961408,,,57.0,69.0,30228,60.0,
-77,-77,-45,14,7,231,12,,,,,,,,,,,session,2565.6478145,168.0,2.0,72.0,0.9309999999999998,3,0.01099810001323931,0.11170550000679214,7,0.010810099993250333,0.05902899999637157,6,0.05021689999557566,0.11612039999454282,,,72.0,60.0,30228,60.0,
77,77,90,14,8,232,3,,,,,,,,,,,session,2572.5539288,150.0,2.0,72.0,0.9309999999999998,5,0.01098690000071656,0.012876799999503419,6,0.2991035000013653,0.3299849000031827,7,0.010819200004334562,0.012719399994239211,,,48.0,72.0,30228,60.0,
-77,77,-45,14,9,233,4,,,,,,,,,,,session,2578.85559810001,150.0,2.0,72.0,0.9309999999999998,2,0.011708599995472468,0.013661899996805005,7,0.11652070000127424,0.1812962999974843,7,0.010908099997323006,0.01269069999398198,,,60.0,63.0,30228,60.0,
77,77,-45,14,10,234,0,,,,,,,,,,,session,2585.0773445000086,144.0,2.0,72.0,0.9309999999999998,5,0.01099120000435505,0.012900600006105378,7,0.01185799999802839,0.09013209999829996,7,0.2717872999928659,0.3227589000016451,,,63.0,69.0,30228,60.0,
77,77,0,14,11,235,1,,,,,,,,,,,session,2592.306066600009,162.0,2.0,72.0,0.9309999999999998,5,0.01072320000093896,0.01262029999634251,0,0.11173960000451189,0.21210370000335388,6,0.010773900008643977,0.012800600001355633,,,54.0,69.0,30228,60.0,
-77,-77,0,14,12,236,13,,,,,,,,,,,session,2598.769193900007,132.0,2.0,72.0,0.9309999999999998,3,0.011035899995476939,0.08853839999937918,0,0.025647799993748777,0.027575899992370978,7,0.273588900003233,0.34136160000343807,,,57.0,57.0,30228,60.0,
-77,77,90,14,13,237,7,,,,,,,,,,,session,2604.7631581000023,144.0,2.0,72.0,0.9309999999999998,2,1.110073600008036,1.1919992000039201,1,3.0962292999902274,3.1794134999945527,0,0.010784500002046116,0.012693399999989197,,,48.0,72.0,30228,60.0,
77,-77,90,14,14,238,11,,,,,,,,,,,session,2615.2495815,162.0,2.0,72.0,0.9309999999999998,4,0.17986850001034327,0.3469284000020707,6,0.01131139999779407,0.0618112999945879,7,0.010992000010446645,0.01285230000212323,,,66.0,69.0,30228,60.0,
77,-77,-45,14,15,239,8,,,,,,,,,,,session,2622.068608100002,156.0,2.0,72.0,0.9309999999999998,4,0.010999000005540438,0.2151097000023583,7,0.010756000003311783,0.06157399999210611,6,0.5841324000066379,0.6507516999990912,,,63.0,57.0,30228,60.0,
77,-77,-45,14,15,239,8,,,materials/instructions\12_break.png,2629.074643900007,2649.1616462000093,0,19.98514070000965,20.084928000011132,0.02501099999062717,20.093005699993228,,,,,,,,,,,,,,,,,,,,30228,60.0,
-77,-77,45,15,0,240,14,,,,,,,,,,,session,2649.1776989000064,180.0,2.0,72.0,0.9309999999999998,3,0.0111585999984527,0.012964699999429286,1,0.03147499999613501,0.12195410000276752,6,0.16762519998883363,0.23419829999329522,,,69.0,66.0,30228,60.0,
77,77,-45,15,1,241,0,,,,,,,,,,,session,2656.6577480999986,132.0,2.0,72.0,0.9309999999999998,5,0.011111300002085045,0.03504290001001209,7,0.07793699999456294,0.14557520000380464,7,0.04776200000196695,0.13244420000410173,,,63.0,57.0,30228,60.0,
-77,-77,90,15,2,242,15,,,,,,,,,,,session,2662.6238752000063,180.0,2.0,72.0,0.9309999999999998,3,0.010856100008822978,0.01275220001116395,6,0.5542424999875948,0.5876866999897175,1,1.368304999996326,1.4341675999894505,,,69.0,63.0,30228,60.0,
77,77,0,15,3,243,1,,,,,,,,,,,session,2671.297754500003,138.0,2.0,72.0,0.9309999999999998,5,0.318548200011719,0.40745470000547357,0,0.326010499993572,0.39256469999963883,6,0.33864899999753106,0.35852900000463706,,,54.0,60.0,30228,60.0,
77,-77,90,15,4,244,11,,,,,,,,,,,session,2678.2791166000097,162.0,2.0,72.0,0.9309999999999998,4,0.011268200003542006,0.0338045999960741,6,0.061877200001617894,0.1441798000014387,7,0.32087789999786764,0.40290149999782443,,,72.0,48.0,30228,60.0,
77,77,90,15,5,245,3,,,,,,,,,,,session,2685.009402099997,180.0,2.0,72.0,0.9309999999999998,5,0.16201960000034887,0.24578539999492932,6,0.011072199995396659,0.04789820000587497,6,0.010778200012282468,0.012638500003959052,,,60.0,63.0,30228,60.0,
-77,77,0,15,6,246,5,,,,,,,,,,,session,2691.8075026000006,126.0,2.0,72.0,0.9309999999999998,2,0.011076100010541268,0.07575380000344012,0,0.12357250000059139,0.20749879999493714,7,0.010983000000123866,0.012891699996544048,,,63.0,66.0,30228,60.0,
-77,-77,-45,15,7,247,12,,,,,,,,,,,session,2697.8075267000095,126.0,2.0,72.0,0.9309999999999998,3,0.010867999997572042,0.012658099993132055,7,0.1777150999987498,0.2612154999951599,6,0.010787999999593012,0.09343530000478495,,,60.0,54.0,30228,60.0,
-77,77,90,15,8,248,7,,,,,,,,,,,session,2703.9273316000035,150.0,2.0,72.0,0.9309999999999998,2,0.07583459999295883,0.14422459999332204,6,0.011062699995818548,0.012973299992154352,7,0.3529355999926338,0.41967649999423884,,,69.0,57.0,30228,60.0,
-77,77,45,15,9,249,6,,,,,,,,,,,session,2710.559974200005,138.0,2.0,72.0,0.9309999999999998,2,0.6304074000072433,0.696225499996217,1,0.29728669999167323,0.36407139999209903,6,0.20408239999960642,0.25365109999256674,,,51.0,54.0,30228,60.0,
77,-77,45,15,10,250,10,,,,,,,,,,,session,2717.381285800002,138.0,2.0,72.0,0.9309999999999998,4,0.35484420000284445,0.42322019999846816,1,0.49706229999719653,0.5658868000027724,7,0.301948899999843,0.3686047000082908,,,51.0,51.0,30228,60.0,
77,-77,0,15,11,251,9,,,,,,,,,,,session,2724.7391374,138.0,2.0,72.0,0.9309999999999998,4,0.7276260999933584,0.8098357999988366,0,1.1989406999928178,1.2645876000024145,1,0.19794509999337606,0.2480278000002727,,,51.0,72.0,30228,60.0,
-77,-77,0,15,12,252,13,,,,,,,,,,,session,2732.860348500006,150.0,2.0,72.0,0.9309999999999998,3,0.32550579999224283,0.3755036999937147,0,0.31935299999895506,0.3526662999938708,7,0.5865847000095528,0.6533603000134462,,,57.0,60.0,30228,60.0,
-77,77,-45,15,13,253,4,,,,,,,,,,,session,2740.14926820001,162.0,2.0,72.0,0.9309999999999998,2,0.011248900002101436,0.05542190000414848,7,0.09355169998889323,0.14354969999112654,7,0.010825799996382557,0.012728499990771525,,,63.0,72.0,30228,60.0,
77,-77,-45,15,14,254,8,,,,,,,,,,,session,2747.302073400002,174.0,2.0,72.0,0.9309999999999998,4,0.010760699995444156,0.012705099987215362,7,1.044786300000851,1.060635599991656,1,0.27134239999577403,0.3381151000066893,,,63.0,60.0,30228,60.0,
77,77,45,15,15,255,2,,,,,,,,,,,session,2755.1272813999967,156.0,2.0,72.0,0.9309999999999998,5,0.26179469999624416,0.3109744999965187,1,0.19121229999291245,0.27469619999465067,6,0.19813849999627564,0.2653602999926079,,,66.0,66.0,30228,60.0,
-77,-77,-45,16,0,256,12,,,,,,,,,,,session,2762.24990960001,150.0,2.0,72.0,0.9309999999999998,3,0.01096010000037495,0.012873500003479421,7,0.11019999999552965,0.1768653000035556,6,0.010782000012113713,0.062334100002772175,,,63.0,69.0,30228,60.0,
77,77,-45,16,1,257,0,,,,,,,,,,,session,2769.307843600007,150.0,2.0,72.0,0.9309999999999998,5,0.12704639999719802,0.176991199987242,7,0.23163449999992736,0.2817450000002282,7,0.011386800004402176,0.013369000007514842,,,57.0,72.0,30228,60.0,
-77,-77,90,16,2,258,15,,,,,,,,,,,session,2775.8696916000044,150.0,2.0,72.0,0.9309999999999998,3,0.013037800003075972,0.09454560000449419,6,0.040515000000596046,0.09171490000153426,6,0.1842999999935273,0.23472589999437332,,,69.0,63.0,30228,60.0,
77,-77,45,16,3,259,10,,,,,,,,,,,session,2782.44929650001,126.0,2.0,72.0,0.9309999999999998,4,0.01144159999967087,0.013388399995164946,1,0.29503720000502653,0.43065419999766164,1,0.40093080000951886,0.517429200001061,,,60.0,57.0,30228,60.0,
77,-77,45,16,3,259,10,,,materials/instructions\12_break.png,2789.222759299999,2799.6923485000007,0,10.367590399997425,10.467485199988005,0.019235900006606244,10.475390400009928,,,,,,,,,,,,,,,,,,,,30228,60.0,
77,77,90,16,4,260,3,,,,,,,,,,,session,2799.708173799998,150.0,2.0,72.0,0.9309999999999998,5,0.012216999995871447,0.014436299999943003,6,0.011098999995738268,0.013018799989367835,6,0.32527450000634417,0.3753560000041034,,,66.0,51.0,30228,60.0,
-77,77,0,16,5,261,5,,,,,,,,,,,session,2806.0160512,174.0,2.0,72.0,0.9309999999999998,2,0.011784200003603473,0.01370409999799449,0,0.31258729999535717,0.4126352000021143,6,0.16237120000005234,0.2448413999954937,,,51.0,69.0,30228,60.0,
-77,77,-45,16,6,262,4,,,,,,,,,,,session,2813.7736965000076,156.0,2.0,72.0,0.9309999999999998,2,0.1291615000081947,0.22873290001007263,7,0.26076789999206085,0.3285759999998845,7,0.8518061999930069,0.9513996000023326,,,48.0,66.0,30228,60.0,
-77,-77,45,16,7,263,14,,,,,,,,,,,session,2821.227648900007,144.0,2.0,72.0,0.9309999999999998,3,0.010916999992332421,0.07782329998735804,1,0.15643719999934547,0.2086146999936318,1,0.21671780000906438,0.2836119000130566,,,63.0,57.0,30228,60.0,
77,-77,90,16,8,264,11,,,,,,,,,,,session,2827.6656251000095,126.0,2.0,72.0,0.9309999999999998,4,0.01231299999926705,0.01424199999019038,6,0.011463499991805293,0.013454499989165924,7,0.13367949999519624,0.23336689999268856,,,69.0,51.0,30228,60.0,
-77,77,90,16,9,265,7,,,,,,,,,,,session,2834.1751416000043,138.0,2.0,72.0,0.9309999999999998,2,0.09439889999339357,0.16480979998596013,6,0.010963799999444745,0.012943699999595992,6,0.2511222000030102,0.3201622999913525,,,69.0,51.0,30228,60.0,
-77,77,45,16,10,266,6,,,,,,,,,,,session,2840.42714710001,162.0,2.0,72.0,0.9309999999999998,2,0.010757600000943057,0.012721599996439181,1,0.48097960000450257,0.5976866999990307,1,0.31304689998796675,0.3964205999945989,,,48.0,63.0,30228,60.0,
77,-77,0,16,11,267,9,,,,,,,,,,,session,2847.4139117000013,180.0,2.0,72.0,0.9309999999999998,4,0.06107039999915287,0.13596569999936037,0,0.3236733999947319,0.39033090000157245,7,0.2844984999974258,0.35125520000292454,,,48.0,51.0,30228,60.0,
77,77,0,16,12,268,1,,,,,,,,,,,session,2854.578478800002,126.0,2.0,72.0,0.9309999999999998,5,0.012047800002619624,0.01397529999667313,0,0.29363220000232104,0.36114399999496527,6,0.048990000010235235,0.11728550000407267,,,54.0,60.0,30228,60.0,
77,77,45,16,13,269,2,,,,,,,,,,,session,2860.5411803000025,174.0,2.0,72.0,0.9309999999999998,5,0.11218740000913385,0.1643508999986807,1,0.010970799994538538,0.029935899990960024,1,0.18664080000598915,0.2539443000132451,,,69.0,57.0,30228,60.0,
77,-77,-45,16,14,270,8,,,,,,,,,,,session,2867.4491930000077,132.0,2.0,72.0,0.9309999999999998,4,0.09339740000723395,0.16039140000066254,7,0.01105789998837281,0.04614969999238383,7,0.011933000001590699,0.052334799998789094,,,63.0,66.0,30228,60.0,
-77,-77,0,16,15,271,13,,,,,,,,,,,session,2873.498976700008,156.0,2.0,72.0,0.9309999999999998,3,0.07753219999722205,0.1466781000053743,0,0.3132579000084661,0.39481569999770727,7,0.23248890000104439,0.28113449999364093,,,48.0,54.0,30228,60.0,
-77,77,90,17,0,272,7,,,,,,,,,,,session,2880.610527500001,180.0,2.0,72.0,0.9309999999999998,2,0.010922200002823956,0.044921499997144565,6,0.14563009999983478,0.2279489999928046,7,0.31524919999355916,0.34968020000087563,,,57.0,51.0,30228,60.0,
77,-77,-45,17,1,273,8,,,,,,,,,,,session,2887.4957989999966,138.0,2.0,72.0,0.9309999999999998,4,0.31046389999391977,0.4105183999927249,7,0.30910080000467133,0.40907910000532866,7,0.7160404000023846,0.7834832000080496,,,54.0,69.0,30228,60.0,
-77,-77,45,17,2,274,14,,,,,,,,,,,session,2894.8844992000086,126.0,2.0,72.0,0.9309999999999998,3,0.01080319999891799,0.012693399999989197,1,0.22855989998788573,0.2968486999889137,6,0.21900949999690056,0.26894120000361,,,63.0,66.0,30228,60.0,
77,-77,0,17,3,275,9,,,,,,,,,,,session,2901.7427218000084,132.0,2.0,72.0,0.9309999999999998,4,0.010831100007635541,0.09222999999474268,0,0.2952145000017481,0.3464224000053946,7,0.010968000002321787,0.012866599994595163,,,51.0,72.0,30228,60.0,
77,77,45,17,4,276,2,,,,,,,,,,,session,2907.8706250999967,144.0,2.0,72.0,0.9309999999999998,5,0.011236999998800457,0.013150600003427826,1,0.2623518999898806,0.3324403999868082,1,0.14851630000339355,0.19948219999787398,,,69.0,66.0,30228,60.0,
77,77,0,17,5,277,1,,,,,,,,,,,session,2914.5168702000083,132.0,2.0,72.0,0.9309999999999998,5,0.342674800005625,0.40829520000261255,0,0.29089370000292547,0.35761799999454524,1,0.12142660000245087,0.20462469999620225,,,54.0,60.0,30228,60.0,
-77,77,0,17,6,278,5,,,,,,,,,,,session,2921.2122390000004,156.0,2.0,72.0,0.9309999999999998,2,0.113532799994573,0.1971283000020776,0,0.011007499997504056,0.012899800000013784,6,0.29914679999637883,0.34919239999726415,,,66.0,57.0,30228,60.0,
-77,-77,-45,17,7,279,12,,,,,,,,,,,session,2927.8756255000044,150.0,2.0,72.0,0.9309999999999998,3,0.16056730000127573,0.22518100000161212,7,0.16259720000380185,0.21232990000862628,6,0.3690416000026744,0.43585449999955017,,,57.0,48.0,30228,60.0,
-77,-77,-45,17,7,279,12,,,materials/instructions\12_break.png,2934.4919930000033,2946.2731854000012,0,11.695879999999306,11.779170299996622,0.02281129999028053,11.78669579999405,,,,,,,,,,,,,,,,,,,,30228,60.0,
-77,-77,0,17,8,280,13,,,,,,,,,,,session,2946.289352699998,144.0,2.0,72.0,0.9309999999999998,3,0.01080250000813976,0.029702800005907193,0,0.12512409999908414,0.17523359999177046,6,0.01129639999999199,0.013225999995484017,,,72.0,69.0,30228,60.0,
77,-77,45,17,9,281,10,,,,,,,,,,,session,2952.7202837000077,168.0,2.0,72.0,0.9309999999999998,4,0.010939800005871803,0.030822800006717443,1,0.20908470000722446,0.2590218000113964,7,0.012225300000864081,0.01414640000439249,,,63.0,72.0,30228,60.0,
-77,77,-45,17,10,282,4,,,,,,,,,,,session,2959.510945000002,168.0,2.0,72.0,0.9309999999999998,2,0.010827200007042848,0.01281580000068061,1,0.36508380000304896,0.4486085000098683,1,0.3357462999993004,0.4197588000097312,,,66.0,51.0,30228,60.0,
-77,77,45,17,11,283,6,,,,,,,,,,,session,2967.1431341999996,162.0,2.0,72.0,0.9309999999999998,2,0.011013099996489473,0.04566260000865441,1,0.15617700001166668,0.22302970000600908,1,0.2993428000045242,0.3159596000041347,,,60.0,57.0,30228,60.0,
77,77,-45,17,12,284,0,,,,,,,,,,,session,2973.826469899999,180.0,2.0,72.0,0.9309999999999998,5,0.22263620000740048,0.2896311000076821,7,0.39388630000757985,0.4753884000092512,6,0.100439700006973,0.15055750000465196,,,48.0,63.0,30228,60.0,
77,-77,90,17,13,285,11,,,,,,,,,,,session,2981.01937970001,144.0,2.0,72.0,0.9309999999999998,4,0.20425300000351854,0.274382899995544,6,0.17783559999952558,0.2446985999995377,6,0.048608600001898594,0.09902219999639783,,,69.0,66.0,30228,60.0,
-77,-77,90,17,14,286,15,,,,,,,,,,,session,2988.1736609000072,144.0,2.0,72.0,0.9309999999999998,3,0.2972754999937024,0.3456032999965828,6,0.011227299997699447,0.013156499990145676,6,0.36783969998941757,0.4337383999954909,,,69.0,69.0,30228,60.0,
77,77,90,17,15,287,3,,,,,,,,,,,session,2995.109983400005,138.0,2.0,72.0,0.9309999999999998,5,0.011608600005274639,0.048067099996842444,6,0.01121130000683479,0.013058900003670715,1,0.28760789999796543,0.3859412000019802,,,66.0,48.0,30228,60.0,
-77,-77,-45,18,0,288,12,,,,,,,,,,,session,3001.1999185000022,138.0,2.0,72.0,0.9309999999999998,3,0.0273565000097733,0.07781760000216309,7,0.011071800006902777,0.012974900004337542,6,0.011328799999319017,0.013219200001913123,,,69.0,66.0,30228,60.0,
-77,77,45,18,1,289,6,,,,,,,,,,,session,3007.3128029000072,156.0,2.0,72.0,0.9309999999999998,2,0.1940902000060305,0.2605545999977039,1,0.051732499996433035,0.11883969999325927,7,0.08249489999434445,0.1512666999915382,,,57.0,57.0,30228,60.0,
-77,-77,90,18,2,290,15,,,,,,,,,,,session,3014.062346999999,138.0,2.0,72.0,0.9309999999999998,3,0.17877389999921434,0.2463763999985531,6,0.01127279999491293,0.013156999993952923,7,0.35077849999652244,0.43474199999764096,,,72.0,51.0,30228,60.0,
77,77,-45,18,3,291,0,,,,,,,,,,,session,3020.5628209999995,180.0,2.0,72.0,0.9309999999999998,5,0.11291850000270642,0.16299770001205616,7,0.06492669999715872,0.14591900000232272,6,0.1327566999971168,0.18308930000057444,,,54.0,57.0,30228,60.0,
77,77,90,18,4,292,3,,,,,,,,,,,session,3027.368752299997,132.0,2.0,72.0,0.9309999999999998,5,0.01094079999893438,0.07382429999415763,6,0.08871470000303816,0.1387477999960538,6,0.03513069999462459,0.0879858999978751,,,60.0,69.0,30228,60.0,
-77,77,90,18,5,293,7,,,,,,,,,,,session,3034.107349900005,144.0,2.0,72.0,0.9309999999999998,2,0.049200900000869296,0.13174870000511874,6,0.011015199997927994,0.012896899992483668,1,0.3371731999941403,0.4195445999939693,,,72.0,57.0,30228,60.0,
-77,-77,0,18,6,294,13,,,,,,,,,,,session,3040.6941066,144.0,2.0,72.0,0.9309999999999998,3,0.1803485999989789,0.264530400003423,6,0.6633554000000004,0.7133432999980869,1,0.8102991999912774,0.8921473999944283,,,48.0,48.0,30228,60.0,
-77,77,-45,18,7,295,4,,,,,,,,,,,session,3048.002158400006,168.0,2.0,72.0,0.9309999999999998,2,0.011010100002749823,0.09080610000819433,7,0.22634819999802858,0.2930793999985326,6,0.4192901999922469,0.4691969999985304,,,63.0,51.0,30228,60.0,
77,-77,45,18,8,296,10,,,,,,,,,,,session,3055.6415954999975,162.0,2.0,72.0,0.9309999999999998,4,0.27820870000869036,0.36004030000185594,1,0.28015840001171455,0.3479751000122633,6,0.3665928999980679,0.4024673999956576,,,51.0,66.0,30228,60.0,
77,77,0,18,9,297,1,,,,,,,,,,,session,3062.847179400007,138.0,2.0,72.0,0.9309999999999998,5,0.9657785000017611,1.0157756999979028,0,0.26413070000126027,0.3150186999992002,7,0.04566519999934826,0.09570499999972526,,,51.0,57.0,30228,60.0,
77,-77,0,18,10,298,9,,,,,,,,,,,session,3069.8151347000094,150.0,2.0,72.0,0.9309999999999998,4,0.01116669998737052,0.013120199990225956,0,0.10869320000347216,0.14163250000274274,6,0.3347644000023138,0.38211790000787005,,,69.0,48.0,30228,60.0,
77,-77,-45,18,11,299,8,,,,,,,,,,,session,3076.576511899999,162.0,2.0,72.0,0.9309999999999998,4,0.010680799998226576,0.012588800003868528,7,0.1282327999942936,0.19748990000516642,6,0.8830125000094995,0.9329869000066537,,,63.0,60.0,30228,60.0,
77,-77,-45,18,11,299,8,,,materials/instructions\12_break.png,3083.956774799997,3102.307363,0,18.283365299997968,18.34869759999856,0.02229090000037104,18.356684700003825,,,,,,,,,,,,,,,,,,,,30228,60.0,
-77,77,0,18,12,300,5,,,,,,,,,,,session,3102.323863800004,150.0,2.0,72.0,0.9309999999999998,2,0.09745099999418017,0.1632919999974547,0,0.026711600003181957,0.09414560000004712,1,0.21981130000494886,0.2864779999945313,,,63.0,51.0,30228,60.0,
77,-77,90,18,13,301,11,,,,,,,,,,,session,3108.7299811999983,156.0,2.0,72.0,0.9309999999999998,4,0.2790335000026971,0.3289205999899423,6,0.010898900000029244,0.012798700001440011,1,0.010835299995960668,0.012748699999065138,,,72.0,72.0,30228,60.0,
77,77,45,18,14,302,2,,,,,,,,,,,session,3115.5456659000047,132.0,2.0,72.0,0.9309999999999998,5,0.033769600006053224,0.10723150000558235,1,0.010877000007894821,0.012736200005747378,6,0.06639880000147969,0.18374389999371488,,,72.0,54.0,30228,60.0,
-77,-77,45,18,15,303,14,,,,,,,,,,,session,3122.176798100001,144.0,2.0,72.0,0.9309999999999998,3,0.04106740000133868,0.14297279999300372,1,0.01086619999841787,0.12817539999377914,1,0.15423410000221338,0.27105280000250787,,,57.0,48.0,30228,60.0,
-77,77,45,19,0,304,6,,,,,,,,,,,session,3128.311518600007,138.0,2.0,72.0,0.9309999999999998,2,0.2784156999987317,0.3785617999965325,1,0.11623729999701027,0.24793329999374691,6,0.012118300001020543,0.014000499999383464,,,51.0,72.0,30228,60.0,
-77,77,-45,19,1,305,4,,,,,,,,,,,session,3134.734910500003,150.0,2.0,72.0,0.9309999999999998,2,0.04866790000232868,0.11631979999947362,7,0.8707891999947606,0.9835628000000725,6,0.33134639999479987,0.38569579999602865,,,72.0,48.0,30228,60.0,
77,77,0,19,2,306,1,,,,,,,,,,,session,3142.247341399998,180.0,2.0,72.0,0.9309999999999998,5,0.22259160000248812,0.28840889999992214,0,0.17618799999763723,0.2262066999974195,6,0.011182599992025644,0.051120599993737414,,,57.0,63.0,30228,60.0,
77,77,90,19,3,307,3,,,,,,,,,,,session,3149.3084027000004,156.0,2.0,72.0,0.9309999999999998,5,0.06357729999581352,0.1648743999976432,6,0.452057499991497,0.5185645000019576,7,0.5195311999996193,0.6023710000008577,,,57.0,69.0,30228,60.0,
77,77,45,19,4,308,2,,,,,,,,,,,session,3156.7344114000007,150.0,2.0,72.0,0.9309999999999998,5,0.06639830001222435,0.15081320000172127,1,0.011342199999489821,0.09421060000022408,7,0.13375160000578035,0.19881980000354815,,,63.0,51.0,30228,60.0,
-77,77,0,19,5,309,5,,,,,,,,,,,session,3163.0630149000062,138.0,2.0,72.0,0.9309999999999998,2,0.23007550000329502,0.34676120000949595,0,0.011089599996921606,0.09349630000360776,6,0.1706449000048451,0.25395929999649525,,,63.0,54.0,30228,60.0,
-77,77,90,19,6,310,7,,,,,,,,,,,session,3169.4594347000093,150.0,2.0,72.0,0.9309999999999998,2,0.011098600007244386,0.06252479999966454,6,0.31395460000203457,0.3984900000068592,6,0.38672730000689626,0.45373660000041127,,,48.0,48.0,30228,60.0,
77,-77,-45,19,7,311,8,,,,,,,,,,,session,3175.931953899999,138.0,2.0,72.0,0.9309999999999998,4,0.427816299998085,0.6441493000020273,7,0.5453199000039604,0.6285280000010971,6,0.2150273000006564,0.29854770000383724,,,51.0,54.0,30228,60.0,
77,-77,0,19,8,312,9,,,,,,,,,,,session,3183.0290958999976,144.0,2.0,72.0,0.9309999999999998,4,0.010795099995448254,0.12429239999619313,0,0.5153034000104526,0.630880700002308,6,0.3238944999902742,0.40596829999412876,,,69.0,63.0,30228,60.0,
77,-77,90,19,9,313,11,,,,,,,,,,,session,3190.7642207000026,180.0,2.0,72.0,0.9309999999999998,4,0.010871399994357489,0.012760499987052754,6,0.1773375000047963,0.2437608000036562,1,0.5016619999951217,0.5516959999949904,,,54.0,51.0,30228,60.0,
-77,-77,-45,19,10,314,12,,,,,,,,,,,session,3197.7969398999994,156.0,2.0,72.0,0.9309999999999998,3,0.010962800006382167,0.06296340000699274,7,0.011355399998137727,0.07635220000520349,7,0.011949300009291619,0.013995400004205294,,,63.0,66.0,30228,60.0,
-77,-77,45,19,11,315,14,,,,,,,,,,,session,3204.261973700006,180.0,2.0,72.0,0.9309999999999998,3,0.011484400005429052,0.16132260000449605,1,0.22788170000421815,0.3111510000017006,6,0.1519955999974627,0.23715529999753926,,,60.0,54.0,30228,60.0,
77,77,-45,19,12,316,0,,,,,,,,,,,session,3211.9996455000073,126.0,2.0,72.0,0.9309999999999998,5,0.2643246999941766,0.34774800000013784,7,0.2659057999990182,0.35022580000804737,7,0.08525779999035876,0.16876699999556877,,,51.0,51.0,30228,60.0,
-77,-77,90,19,13,317,15,,,,,,,,,,,session,3218.1288107,174.0,2.0,72.0,0.9309999999999998,3,0.010911199991824105,0.012795899994671345,6,0.010697599995182827,0.012593999999808148,6,0.09695510000165086,0.1635134999960428,,,66.0,63.0,30228,60.0,
-77,-77,0,19,14,318,13,,,,,,,,,,,session,3224.817805700004,168.0,2.0,72.0,0.9309999999999998,3,0.011163699993630871,0.013095400005113333,0,0.013980300005641766,0.01581070000247564,6,0.6220532000006642,0.6705395999888424,,,72.0,63.0,30228,60.0,
77,-77,45,19,15,319,10,,,,,,,,,,,session,3232.610848199998,156.0,2.0,72.0,0.9309999999999998,4,0.5288689000008162,0.5789034000044921,1,0.011187099997187033,0.013080499993520789,6,0.2705988000088837,0.3206058000068879,,,69.0,51.0,30228,60.0,
77,-77,45,19,15,319,10,,,materials/instructions\12_break.png,3239.5923634000064,3251.1770829000016,0,11.492936499998905,11.58186520000163,0.021771999992779456,11.588561699987622,,,,,,,,,,,,,,,,,,,,30228,60.0,
77,77,45,20,0,320,2,,,,,,,,,,,session,3251.191362400001,162.0,2.0,72.0,0.9309999999999998,5,0.011254500001086853,0.01315900000918191,1,0.010743999999249354,0.012663500005146489,1,0.17929040000308305,0.26264139999693725,,,69.0,51.0,30228,60.0,
-77,-77,0,20,1,321,13,,,,,,,,,,,session,3257.7116894000064,132.0,2.0,72.0,0.9309999999999998,3,0.011158199995406903,0.042145500003243797,0,0.011174500003107823,0.013075399998342618,6,0.011962999997194856,0.013844699991750531,,,66.0,66.0,30228,60.0,
77,-77,45,20,2,322,10,,,,,,,,,,,session,3263.6273614000092,180.0,2.0,72.0,0.9309999999999998,4,0.07436040000175126,0.21230210000067018,1,0.035236399999121204,0.1355308999918634,7,0.01103569999395404,0.013004199994611554,,,57.0,60.0,30228,60.0,
77,77,0,20,3,323,1,,,,,,,,,,,session,3270.493693299999,138.0,2.0,72.0,0.9309999999999998,5,0.08906659999047406,0.15821569999388885,0,0.2949351999995997,0.34380240000609774,7,0.011055499999201857,0.012954699996043928,,,48.0,63.0,30228,60.0,
-77,-77,90,20,4,324,15,,,,,,,,,,,session,3277.3216143000027,180.0,2.0,72.0,0.9309999999999998,3,0.01092390000121668,0.07561590000113938,6,0.244663399993442,0.36223009999957867,6,0.011065500002587214,0.012981400010176003,,,51.0,63.0,30228,60.0,
-77,-77,-45,20,5,325,12,,,,,,,,,,,session,3284.1412831000052,180.0,2.0,72.0,0.9309999999999998,3,0.010839700000360608,0.0948692999954801,7,0.25067049999779556,0.3147591000015382,6,0.26938589999917895,0.35200410000106785,,,66.0,54.0,30228,60.0,
77,77,-45,20,6,326,0,,,,,,,,,,,session,3291.352433699998,132.0,2.0,72.0,0.9309999999999998,5,0.011001399994711392,0.012745200001518242,7,0.3805197000037879,0.4473411000071792,7,0.23392889999377076,0.3177533999987645,,,69.0,51.0,30228,60.0,
77,-77,90,20,7,327,11,,,,,,,,,,,session,3298.3131128000095,126.0,2.0,72.0,0.9309999999999998,4,0.011364499994670041,0.013255999991088174,6,0.011190999997779727,0.03861529999994673,1,0.1840416000050027,0.25120670000615064,,,66.0,57.0,30228,60.0,
-77,77,0,20,8,328,5,,,,,,,,,,,session,3304.2292585000105,162.0,2.0,72.0,0.9309999999999998,2,0.0774879999953555,0.14481199999863748,0,0.24791560000448953,0.3150329000054626,1,0.23665589999291115,0.34074559999862686,,,54.0,48.0,30228,60.0,
77,-77,-45,20,9,329,8,,,,,,,,,,,session,3310.8883975000062,168.0,2.0,72.0,0.9309999999999998,4,0.010902599999099039,0.06337990000611171,7,0.010967399997753091,0.013028499990468845,6,0.010841800001799129,0.012752599999657832,,,72.0,69.0,30228,60.0,
77,77,90,20,10,330,3,,,,,,,,,,,session,3317.6457235999987,162.0,2.0,72.0,0.9309999999999998,5,0.17834089999087155,0.24591929999587592,6,0.17797399999108166,0.2454618999909144,1,0.011067800005548634,0.013054199996986426,,,57.0,66.0,30228,60.0,
-77,-77,45,20,11,331,14,,,,,,,,,,,session,3324.3347015000036,132.0,2.0,72.0,0.9309999999999998,3,0.060725899995304644,0.1266648000018904,1,0.1987001999950735,0.2986062999989372,6,0.08443610000540502,0.1350516999955289,,,54.0,57.0,30228,60.0,
-77,77,-45,20,12,332,4,,,,,,,,,,,session,3330.381638000006,150.0,2.0,72.0,0.9309999999999998,2,0.1303163999982644,0.1805222999973921,7,0.1117965000012191,0.16200209999806248,1,0.13657149999926332,0.2038239999965299,,,57.0,51.0,30228,60.0,
77,-77,0,20,13,333,9,,,,,,,,,,,session,3336.6703527000063,150.0,2.0,72.0,0.9309999999999998,4,0.01095050000003539,0.0709391999989748,0,0.010823399992659688,0.04156369999691378,6,0.011054299990064465,0.01297579999663867,,,60.0,66.0,30228,60.0,
-77,77,45,20,14,334,6,,,,,,,,,,,session,3343.4557732999965,180.0,2.0,72.0,0.9309999999999998,2,0.394166199999745,0.4609636999957729,1,2.934117700002389,3.0175173000025097,1,0.6067773999966448,0.6901605000020936,,,60.0,48.0,30228,60.0,
-77,77,90,20,15,335,7,,,,,,,,,,,session,3353.8665711000067,168.0,2.0,72.0,0.9309999999999998,2,0.34249070000078063,0.3782420000061393,6,0.15050129999872297,0.15306270000291988,7,0.01246089999040123,0.014356799991219305,,,54.0,66.0,30228,60.0,
-77,-77,-45,21,0,336,12,,,,,,,,,,,session,3360.6584287000005,174.0,2.0,72.0,0.9309999999999998,3,0.12584169999172445,0.2086929999932181,7,2.564779599997564,2.615546999993967,1,0.011502000008476898,0.048738800003775395,,,51.0,66.0,30228,60.0,
77,77,0,21,1,337,1,,,,,,,,,,,session,3370.1292324000096,150.0,2.0,72.0,0.9309999999999998,5,0.031404099994688295,0.09897160000400618,0,0.1633488999941619,0.23003330000210553,6,0.1680311999953119,0.21805969999695662,,,54.0,57.0,30228,60.0,
-77,-77,0,21,2,338,13,,,,,,,,,,,session,3376.4679013999994,132.0,2.0,72.0,0.9309999999999998,3,0.01111200000741519,0.06150630000047386,0,0.010969299997668713,0.10970709999674,7,0.011006999993696809,0.038370299997041,,,60.0,57.0,30228,60.0,
77,-77,-45,21,3,339,8,,,,,,,,,,,session,3382.269086900007,162.0,2.0,72.0,0.9309999999999998,4,0.010812399996211752,0.04486569999426138,7,0.03038320000632666,0.0973948000028031,7,0.01195960000040941,0.013902900012908503,,,54.0,72.0,30228,60.0,
77,-77,-45,21,3,339,8,,,materials/instructions\12_break.png,3389.128703299997,3400.316492099999,0,11.120562099997187,11.185820299986517,0.01791850000154227,11.193674200010719,,,,,,,,,,,,,,,,,,,,30228,60.0,
77,77,45,21,4,340,2,,,,,,,,,,,session,3400.3322958000062,156.0,2.0,72.0,0.9309999999999998,5,0.010855799991986714,0.012788199994247407,1,0.27485329999763053,0.34146149999287445,1,1.0340480000013486,1.1480271999898832,,,48.0,57.0,30228,60.0,
77,-77,90,21,5,341,11,,,,,,,,,,,session,3407.8622632000042,174.0,2.0,72.0,0.9309999999999998,4,0.10638230000040494,0.19165459999931045,6,0.011660100004519336,0.013708999991649762,6,0.2550636999949347,0.3028226000024006,,,63.0,60.0,30228,60.0,
