x,y,orientation,.thisRepN,.thisTrialN,.thisN,.thisIndex,.stepSize,.intensity,image_name,global_start_time,global_end_time,pressKey,pressRT,releaseRT,image_started,image_ended,name,globalTime,fixation_dur,stimulation_dur,post_fixation,opacity,locationResponse_pressKey,locationResponse_pressRT,locationResponse_releaseRT,orientationResponse_pressKey,orientationResponse_pressRT,orientationResponse_releaseRT,pasResponse_pressKey,pasResponse_pressRT,pasResponse_releaseRT,.response,finalOpacity,postLoc,postOri,ID,frameRate,
,,,0,-1,-1,0,0.0969100130080564,None,materials/instructions\1_welcome.png,4.078766599996015,27.79826219996903,0,23.564610800007358,23.717458600061946,0.08175180002581328,23.720785700017586,,,,,,,,,,,,,,,,,,,,33473,61.0,
,,,0,-1,-1,0,0.0969100130080564,None,materials/instructions\2_instruction.png,27.847656599944457,42.84387099999003,0,14.82428910001181,14.994529100018553,0.016609200043603778,15.001457100035623,,,,,,,,,,,,,,,,,,,,33473,61.0,
,,,0,-1,-1,0,0.0969100130080564,None,materials/instructions\3_location_demo.png,42.886370399966836,56.45076349994633,0,13.329845999949612,13.562415199936368,0.021895199897699058,13.569348599994555,,,,,,,,,,,,,,,,,,,,33473,61.0,
,,,0,-1,-1,0,0.0969100130080564,None,materials/instructions\4_orientation_demo.png,56.50059650000185,74.49733099993318,0,17.844875500071794,17.994750100071542,0.01788890000898391,18.00850969995372,,,,,,,,,,,,,,,,,,,,33473,61.0,
,,,0,-1,-1,0,0.0969100130080564,None,materials/instructions\5_pas_demo.png,74.5689085999038,80.78431299992371,0,6.11863889999222,6.213146800058894,0.017057100078091025,6.2206509000388905,,,,,,,,,,,,,,,,,,,,33473,61.0,
152,152,90,0,-1,-1,0,0.0969100130080564,None,,,,,,,,,session,80.79940099990927,152.0,2.0,73.0,1.0,5,1.9243608999531716,2.17987649992574,6,2.821672399993986,2.982881600037217,1,2.3800695000682026,2.524293900001794,,,,,33473,61.0,
-152,152,-45,0,-1,-1,0,0.0969100130080564,None,,,,,,,,,session,92.51493639999535,183.0,2.0,73.0,1.0,2,1.1844338000519201,1.353448300040327,1,1.571807499974966,1.7420029999921098,7,1.6156971999444067,1.7864850999321789,,,,,33473,61.0,
152,152,45,0,-1,-1,0,0.0969100130080564,None,,,,,,,,,session,102.07371509994846,165.0,2.0,73.0,1.0,5,1.2712712000356987,1.4547086999518797,7,1.1908947000047192,1.391406900016591,7,1.1639721000101417,1.314198900014162,,,,,33473,61.0,
152,152,0,0,-1,-1,0,0.0969100130080564,None,,,,,,,,,session,110.51111590000801,183.0,2.0,73.0,1.0,5,1.868737099925056,2.036785200005397,0,1.0726084999041632,1.2186892000027,7,1.3678727999795228,1.5526422000257298,,,,,33473,61.0,
152,152,-45,0,-1,-1,0,0.0969100130080564,None,,,,,,,,,session,119.87141209992114,134.0,2.0,73.0,1.0,5,1.1344594000838697,1.3051696000620723,1,1.0236630000872537,1.1549884000560269,6,1.295977700036019,1.4817255000816658,,,,,33473,61.0,
,,,0,-1,-1,0,0.0969100130080564,None,materials/instructions\10_staircase_start.png,127.62717719993088,142.4820805999916,0,14.736205199966207,14.852925300016068,0.013074000016786158,14.86762589996215,,,,,,,,,,,,,,,,,,,,33473,61.0,
,,,0,0,-1,0,0.0969100130080564,0.4,,,,,,,,,staircase,142.50356739992276,128.0,2.0,73.0,0.4,,,,0,1.0454018999589607,1.1602025999454781,,,,1,,,,33473,61.0,
,,,0,1,-1,0,0.0969100130080564,0.32,,,,,,,,,staircase,147.1544934998965,159.0,2.0,73.0,0.32,,,,7,1.1967005000915378,1.3448166000889614,,,,1,,,,33473,61.0,
,,,0,2,-1,0,0.0969100130080564,0.256,,,,,,,,,staircase,152.5932016998995,183.0,2.0,73.0,0.256,,,,0,0.6986628000158817,0.8473881999962032,,,,1,,,,33473,61.0,
,,,0,3,-1,0,0.0969100130080564,0.2048,,,,,,,,,staircase,158.12873379990924,171.0,2.0,73.0,0.2048,,,,0,0.7105755999218673,0.8767505999421701,,,,1,,,,33473,61.0,
,,,0,4,-1,0,0.0969100130080564,0.16384,,,,,,,,,staircase,163.3166814999422,134.0,2.0,73.0,0.16384,,,,0,0.7275401999941096,0.8618867999175563,,,,1,,,,33473,61.0,
,,,0,5,-1,0,0.0969100130080564,0.13107200000000002,,,,,,,,,staircase,167.8184925999958,152.0,2.0,73.0,0.13107200000000002,,,,0,0.8433611000655219,0.9787721000611782,,,,1,,,,33473,61.0,
,,,0,6,-1,0,0.0969100130080564,0.10485760000000002,,,,,,,,,staircase,172.7756024999544,165.0,2.0,73.0,0.10485760000000002,,,,1,0.8284580999752507,0.9229343000333756,,,,1,,,,33473,61.0,
,,,0,7,-1,0,0.0969100130080564,0.08388608000000002,,,,,,,,,staircase,178.07854319992475,134.0,2.0,73.0,0.08388608000000002,,,,1,1.0454457000596449,1.2303890000330284,,,,1,,,,33473,61.0,
,,,0,8,-1,0,0.0969100130080564,0.06710886400000002,,,,,,,,,staircase,183.0870336999651,183.0,2.0,73.0,0.06710886400000002,,,,1,0.9808218999532983,1.1127650999696925,,,,1,,,,33473,61.0,
,,,0,9,-1,0,0.0969100130080564,0.053687091200000016,,,,,,,,,staircase,188.73427039990202,177.0,2.0,73.0,0.053687091200000016,,,,7,1.3434212999418378,1.4933955998858437,,,,0,,,,33473,61.0,
,,,0,10,-1,0,0.0969100130080564,0.06710886400000002,,,,,,,,,staircase,194.69105599995237,165.0,2.0,73.0,0.06710886400000002,,,,7,1.3102545000147074,1.4649020999204367,,,,1,,,,33473,61.0,
,,,0,11,-1,0,0.0969100130080564,0.053687091200000016,,,,,,,,,staircase,200.46625179995317,165.0,2.0,73.0,0.053687091200000016,,,,1,0.9644277000334114,1.0944325000746176,,,,1,,,,33473,61.0,
,,,0,12,-1,0,0.0969100130080564,0.04294967296000001,,,,,,,,,staircase,205.81559919996653,159.0,2.0,73.0,0.04294967296000001,,,,0,1.1690884999698028,1.2856869000243023,,,,1,,,,33473,61.0,
,,,0,13,-1,0,0.0969100130080564,0.034359738368000006,,,,,,,,,staircase,211.15120630001184,152.0,2.0,73.0,0.034359738368000006,,,,1,1.193746699951589,1.3327582000056282,,,,1,,,,33473,61.0,
,,,0,14,-1,0,0.0969100130080564,0.027487790694400004,,,,,,,,,staircase,216.46341589989606,171.0,2.0,73.0,0.027487790694400004,,,,1,0.8533293000655249,0.973963399999775,,,,1,,,,33473,61.0,
,,,0,15,-1,0,0.0969100130080564,0.021990232555520003,,,,,,,,,staircase,221.8320917999372,152.0,2.0,73.0,0.021990232555520003,,,,1,1.4879243000177667,1.6213357000378892,,,,0,,,,33473,61.0,
,,,0,16,-1,0,0.0969100130080564,0.027487790694400004,,,,,,,,,staircase,227.5176929999143,146.0,2.0,73.0,0.027487790694400004,,,,7,1.1727880999678746,1.3080728000495583,,,,1,,,,33473,61.0,
,,,0,17,-1,0,0.0969100130080564,0.021990232555520003,,,,,,,,,staircase,232.7031906999182,165.0,2.0,73.0,0.021990232555520003,,,,6,1.2167882999638095,1.3503654999658465,,,,0,,,,33473,61.0,
,,,0,18,-1,0,0.0969100130080564,0.027487790694400004,,,,,,,,,staircase,238.27657819993328,140.0,2.0,73.0,0.027487790694400004,,,,1,1.1244663000106812,1.2308322000317276,,,,1,,,,33473,61.0,
,,,0,19,-1,0,0.0969100130080564,0.021990232555520003,,,,,,,,,staircase,243.45046769990586,159.0,2.0,73.0,0.021990232555520003,,,,7,1.0099008999532089,1.1596537999575958,,,,1,,,,33473,61.0,
,,,0,20,-1,0,0.0969100130080564,0.017592186044416,,,,,,,,,staircase,248.74975979991723,128.0,2.0,73.0,0.017592186044416,,,,0,1.444508699933067,1.5785468999529257,,,,1,,,,33473,61.0,
,,,0,21,-1,0,0.0969100130080564,0.014073748835532801,,,,,,,,,staircase,253.90276149997953,134.0,2.0,73.0,0.014073748835532801,,,,0,1.2440993000054732,1.4443795999977738,,,,0,,,,33473,61.0,
,,,0,22,-1,0,0.0969100130080564,0.017592186044416,,,,,,,,,staircase,258.9409531999845,140.0,2.0,73.0,0.017592186044416,,,,1,1.150728499982506,1.3298316999571398,,,,0,,,,33473,61.0,
,,,0,23,-1,0,0.0969100130080564,0.021990232555520003,,,,,,,,,staircase,264.2109762999462,177.0,2.0,73.0,0.021990232555520003,,,,6,0.9733360999962315,1.1899987999349833,,,,1,,,,33473,61.0,
,,,0,24,-1,0,0.0969100130080564,0.017592186044416,,,,,,,,,staircase,269.91749179991893,134.0,2.0,73.0,0.017592186044416,,,,1,1.2733994000591338,1.3903730000602081,,,,1,,,,33473,61.0,
,,,0,25,-1,0,0.0969100130080564,0.014073748835532801,,,,,,,,,staircase,275.0003254999174,177.0,2.0,73.0,0.014073748835532801,,,,1,1.2150312999729067,1.3586439999053255,,,,1,,,,33473,61.0,
,,,0,26,-1,0,0.0969100130080564,0.01125899906842624,,,,,,,,,staircase,280.72304129996337,128.0,2.0,73.0,0.01125899906842624,,,,7,1.288152499939315,1.4415669000009075,,,,0,,,,33473,61.0,
,,,0,27,-1,0,0.0969100130080564,0.014073748835532801,,,,,,,,,staircase,285.7459855999332,159.0,2.0,73.0,0.014073748835532801,,,,6,1.0154102999949828,1.1922798999585211,,,,0,,,,33473,61.0,
,,,0,28,-1,0,0.0969100130080564,0.017592186044416,,,,,,,,,staircase,291.09734589990694,177.0,2.0,73.0,0.017592186044416,,,,1,1.2101992000825703,1.3248480000765994,,,,0,,,,33473,61.0,
,,,0,29,-1,0,0.0969100130080564,0.021990232555520003,,,,,,,,,staircase,296.9504178999923,146.0,2.0,73.0,0.021990232555520003,,,,0,1.3158205000218004,1.442922499962151,,,,0,,,,33473,61.0,
,,,0,30,-1,0,0.0969100130080564,0.027487790694400004,,,,,,,,,staircase,302.3231525999727,134.0,2.0,73.0,0.027487790694400004,,,,0,0.8841803000541404,1.0693486999953166,,,,1,,,,33473,61.0,
,,,0,31,-1,0,0.0969100130080564,0.021990232555520003,,,,,,,,,staircase,307.1773501998978,171.0,2.0,73.0,0.021990232555520003,,,,6,1.2437317000003532,1.3882870000088587,,,,0,,,,33473,61.0,
,,,0,32,-1,0,0.0969100130080564,0.027487790694400004,,,,,,,,,staircase,312.998108199914,159.0,2.0,73.0,0.027487790694400004,,,,6,0.8397741999942809,0.9917222999501973,,,,1,,,,33473,61.0,
,,,0,33,-1,0,0.0969100130080564,0.021990232555520003,,,,,,,,,staircase,318.2373071999755,146.0,2.0,73.0,0.021990232555520003,,,,7,0.9993550999788567,1.1606756000546739,,,,0,,,,33473,61.0,
,,,0,34,-1,0,0.0969100130080564,0.027487790694400004,,,,,,,,,staircase,323.1892835999606,134.0,2.0,73.0,0.027487790694400004,,,,1,1.120938100037165,1.2195030000293627,,,,1,,,,33473,61.0,
,,,0,35,-1,0,0.0969100130080564,0.021990232555520003,,,,,,,,,staircase,328.20519649994094,177.0,2.0,73.0,0.021990232555520003,,,,6,0.9439947999780998,1.0771504000294954,,,,0,,,,33473,61.0,
,,,0,36,-1,0,0.0969100130080564,0.027487790694400004,,,,,,,,,staircase,333.813784900005,134.0,2.0,73.0,0.027487790694400004,,,,1,1.092742700013332,1.197289799922146,,,,1,,,,33473,61.0,
,,,0,37,-1,0,0.0969100130080564,0.021990232555520003,,,,,,,,,staircase,338.7244574999204,183.0,2.0,73.0,0.021990232555520003,,,,7,0.9389495000941679,1.0848390000173822,,,,1,,,,33473,61.0,
,,,0,38,-1,0,0.0969100130080564,0.017592186044416,,,,,,,,,staircase,344.2384775999235,165.0,2.0,73.0,0.017592186044416,,,,7,1.147612000000663,1.4594511000905186,,,,0,,,,33473,61.0,
,,,0,39,-1,0,0.0969100130080564,0.021990232555520003,,,,,,,,,staircase,350.0604691999033,140.0,2.0,73.0,0.021990232555520003,,,,7,1.2047725999727845,1.3690285000484437,,,,1,,,,33473,61.0,
,,,0,40,-1,0,0.0969100130080564,0.017592186044416,,,,,,,,,staircase,355.32985129998997,128.0,2.0,73.0,0.017592186044416,,,,0,0.9928335000295192,1.1404668000759557,,,,0,,,,33473,61.0,
,,,0,41,-1,0,0.0969100130080564,0.021990232555520003,,,,,,,,,staircase,360.18177479994483,183.0,2.0,73.0,0.021990232555520003,,,,6,0.9607171999523416,1.1112918000435457,,,,0,,,,33473,61.0,
,,,0,42,-1,0,0.0969100130080564,0.027487790694400004,,,,,,,,,staircase,365.7884241999127,134.0,2.0,73.0,0.027487790694400004,,,,0,0.6083903000690043,0.7134162000147626,,,,1,,,,33473,61.0,
,,,0,43,-1,0,0.0969100130080564,0.021990232555520003,,,,,,,,,staircase,370.32937629998196,165.0,2.0,73.0,0.021990232555520003,,,,7,1.160537299932912,1.4936256000073627,,,,0,,,,33473,61.0,
,,,0,44,-1,0,0.0969100130080564,0.027487790694400004,,,,,,,,,staircase,376.19614209991414,146.0,2.0,73.0,0.027487790694400004,,,,6,0.8746036000084132,1.006525699980557,,,,1,,,,33473,61.0,
,,,0,45,-1,0,0.0969100130080564,0.021990232555520003,,,,,,,,,staircase,381.1984145999886,159.0,2.0,73.0,0.021990232555520003,,,,1,0.9485094000119716,1.0789765999652445,,,,0,,,,33473,61.0,
,,,0,46,-1,0,0.0969100130080564,0.027487790694400004,,,,,,,,,staircase,386.30056839995086,140.0,2.0,73.0,0.027487790694400004,,,,6,0.6940687000751495,1.1446662000380456,,,,1,,,,33473,61.0,
,,,0,47,-1,0,0.0969100130080564,0.021990232555520003,,,,,,,,,staircase,391.24118299991824,159.0,2.0,73.0,0.021990232555520003,,,,7,0.7943037999793887,0.9649906000122428,,,,0,,,,33473,61.0,
,,,0,48,-1,0,0.0969100130080564,0.027487790694400004,,,,,,,,,staircase,396.51835419994313,134.0,2.0,73.0,0.027487790694400004,,,,6,0.652367299888283,0.772397099994123,,,,1,,,,33473,61.0,
,,,0,49,-1,0,0.0969100130080564,0.021990232555520003,,,,,,,,,staircase,401.0688363999361,171.0,2.0,73.0,0.021990232555520003,,,,7,1.296015499974601,1.3772193000186235,,,,1,,,,33473,61.0,
,,,0,50,-1,0,0.0969100130080564,0.017592186044416,,,,,,,,,staircase,406.68615289998706,140.0,2.0,73.0,0.017592186044416,,,,0,0.8026058999821544,0.8929055999033153,,,,0,,,,33473,61.0,
,,,0,51,-1,0,0.0969100130080564,0.021990232555520003,,,,,,,,,staircase,411.41896809998434,183.0,2.0,73.0,0.021990232555520003,,,,0,0.9957355000078678,1.1271934999385849,,,,0,,,,33473,61.0,
,,,0,52,-1,0,0.0969100130080564,0.027487790694400004,,,,,,,,,staircase,417.191201300011,165.0,2.0,73.0,0.027487790694400004,,,,1,0.9945123000070453,1.0956444999901578,,,,1,,,,33473,61.0,
,,,0,53,-1,0,0.0969100130080564,0.021990232555520003,,,,,,,,,staircase,422.61525699996855,159.0,2.0,73.0,0.021990232555520003,,,,1,1.236088699894026,1.364319899934344,,,,1,,,,33473,61.0,
,,,0,54,-1,0,0.0969100130080564,0.017592186044416,,,,,,,,,staircase,428.0852220999077,177.0,2.0,73.0,0.017592186044416,,,,6,0.9755947000812739,1.1275733000366017,,,,0,,,,33473,61.0,
,,,0,55,-1,0,0.0969100130080564,0.021990232555520003,,,,,,,,,staircase,433.59125419997144,159.0,2.0,73.0,0.021990232555520003,,,,1,0.7010456999996677,0.8187651999760419,,,,1,,,,33473,61.0,
,,,0,56,-1,0,0.0969100130080564,0.017592186044416,,,,,,,,,staircase,438.66172350000124,140.0,2.0,73.0,0.017592186044416,,,,6,1.1690343000227585,1.3145731999538839,,,,0,,,,33473,61.0,
,,,0,57,-1,0,0.0969100130080564,0.021990232555520003,,,,,,,,,staircase,443.8106922999723,128.0,2.0,73.0,0.021990232555520003,,,,1,0.8445083000697196,1.0085809000302106,,,,1,,,,33473,61.0,
,,,0,58,-1,0,0.0969100130080564,0.017592186044416,,,,,,,,,staircase,448.381593799917,146.0,2.0,73.0,0.017592186044416,,,,7,1.0691855000331998,1.2532491000602022,,,,0,,,,33473,61.0,
,,,0,59,-1,0,0.0969100130080564,0.021990232555520003,,,,,,,,,staircase,453.45201149990316,183.0,2.0,73.0,0.021990232555520003,,,,7,0.7994163000257686,0.9614429000066593,,,,0,,,,33473,61.0,
,,,0,60,-1,0,0.0969100130080564,0.027487790694400004,,,,,,,,,staircase,458.95945049996953,171.0,2.0,73.0,0.027487790694400004,,,,7,0.808259200071916,1.0272842000704259,,,,1,,,,33473,61.0,
,,,0,61,-1,0,0.0969100130080564,0.021990232555520003,,,,,,,,,staircase,464.40526769997086,159.0,2.0,73.0,0.021990232555520003,,,,0,0.9659932999638841,1.1574586000060663,,,,1,,,,33473,61.0,
,,,0,62,-1,0,0.0969100130080564,0.017592186044416,,,,,,,,,staircase,469.7317512999289,177.0,2.0,73.0,0.017592186044416,,,,0,0.7142818999709561,0.8969498999649659,,,,0,,,,33473,61.0,
,,,0,63,-1,0,0.0969100130080564,0.021990232555520003,,,,,,,,,staircase,474.9550790999783,128.0,2.0,73.0,0.021990232555520003,,,,0,0.5108766000485048,0.6922671999782324,,,,1,,,,33473,61.0,
,,,0,64,-1,0,0.0969100130080564,0.017592186044416,,,,,,,,,staircase,479.30603019997943,165.0,2.0,73.0,0.017592186044416,,,,1,0.6678785999538377,0.8020621999166906,,,,1,,,,33473,61.0,
,,,0,65,-1,0,0.0969100130080564,0.014073748835532801,,,,,,,,,staircase,484.395408899989,128.0,2.0,73.0,0.014073748835532801,,,,1,0.7887969000730664,1.0278056000825018,,,,1,,,,33473,61.0,
,,,0,66,-1,0,0.0969100130080564,0.01125899906842624,,,,,,,,,staircase,489.0213919999078,183.0,2.0,73.0,0.01125899906842624,,,,6,0.9795404999749735,1.1993960998952389,,,,1,,,,33473,61.0,
,,,0,67,-1,0,0.0969100130080564,0.009007199254740993,,,,,,,,,staircase,494.6700485999463,165.0,2.0,73.0,0.009007199254740993,,,,6,0.9644201999763027,1.1322265999624506,,,,1,,,,33473,61.0,
,,,0,68,-1,0,0.0969100130080564,0.007205759403792794,,,,,,,,,staircase,500.10858419991564,146.0,2.0,73.0,0.007205759403792794,,,,7,0.7129928999347612,0.9487982999999076,,,,0,,,,33473,61.0,
,,,0,69,-1,0,0.0969100130080564,0.009007199254740993,,,,,,,,,staircase,504.99624749994837,128.0,2.0,73.0,0.009007199254740993,,,,7,1.5933380000060424,1.8955905999755487,,,,0,,,,33473,61.0,
,,,0,-1,-1,0,,,materials/instructions\11_session_start.png,510.4724750999594,519.888598099933,0,9.311244799988344,9.413931499933824,0.010391400079242885,9.420550500042737,,,,,,,,,,,,,,,,,,,,33473,61.0,
,,,0,-1,-1,0,,,,,,,,,,,,,,,,,,,,,,,,,,,0.020083591432026197,,,33473,61.0,
152,152,90,0,0,0,3,,,,,,,,,,,session,519.9040702999337,140.0,2.0,73.0,0.020083591432026197,4,2.2500727999722585,2.4833716000430286,6,1.2038695000810549,1.372044900082983,0,1.0363038999494165,1.1698092999868095,,,73.0,58.0,33473,61.0,
-152,-152,-45,0,1,1,12,,,,,,,,,,,session,531.2159535000101,165.0,2.0,73.0,0.020083591432026197,3,0.9099712999304757,1.1258124000160024,7,1.4338760999962687,1.6841214000014588,1,1.4968820000067353,1.6428030000533909,,,64.0,67.0,33473,61.0,
152,-152,90,0,2,2,11,,,,,,,,,,,session,542.2527081998996,171.0,2.0,73.0,0.020083591432026197,5,1.330868300050497,1.4820098000345752,7,0.41160130000207573,0.5623231999343261,0,0.4646326000802219,0.6113321000011638,,,52.0,55.0,33473,61.0,
152,-152,-45,0,3,3,8,,,,,,,,,,,session,551.1324936999008,128.0,2.0,73.0,0.020083591432026197,4,1.5500536999898031,1.8624805000144988,0,0.8804906000150368,1.0354774000588804,1,1.1482005000580102,1.2783773000119254,,,64.0,49.0,33473,61.0,
-152,152,45,0,4,4,6,,,,,,,,,,,session,560.9906431999989,177.0,2.0,73.0,0.020083591432026197,2,1.0340725999558344,1.2490647999802604,1,0.8774294999893755,1.1439710999839008,0,0.527548799989745,0.6932673000264913,,,55.0,67.0,33473,61.0,
-152,-152,45,0,5,5,14,,,,,,,,,,,session,570.6953294998966,140.0,2.0,73.0,0.020083591432026197,3,1.2335200000088662,1.4191433999221772,1,1.4192696999525651,1.5472491999389604,0,1.131188099971041,1.3360619000159204,,,55.0,67.0,33473,61.0,
152,-152,45,0,6,6,10,,,,,,,,,,,session,580.9921596999047,183.0,2.0,73.0,0.020083591432026197,5,1.0778823000146076,1.2947509000077844,6,0.6760122000705451,0.9241066001122817,0,1.3221422000788152,1.472053200006485,,,73.0,61.0,33473,61.0,
-152,-152,90,0,7,7,15,,,,,,,,,,,session,591.6797135999659,146.0,2.0,73.0,0.020083591432026197,3,1.1904180001001805,1.4385506000835449,6,0.5060946000739932,0.6776824000990018,1,0.8265190999954939,0.9597530999453738,,,52.0,67.0,33473,61.0,
-152,152,90,0,8,8,7,,,,,,,,,,,session,600.9194871999789,128.0,2.0,73.0,0.020083591432026197,4,1.5605876999907196,1.8274558000266552,7,0.48406409996096045,0.6462663999991491,0,0.32955800008494407,0.4758354000514373,,,67.0,61.0,33473,61.0,
152,152,0,0,9,9,1,,,,,,,,,,,session,609.6931921999203,165.0,2.0,73.0,0.020083591432026197,5,0.8272605000529438,1.1979550999822095,0,0.4400337999686599,0.6609029999235645,1,0.6317949000513181,0.8255764000350609,,,52.0,70.0,33473,61.0,
-152,152,-45,0,10,10,4,,,,,,,,,,,session,618.7477815999882,128.0,2.0,73.0,0.020083591432026197,3,1.3283025999553502,1.6782636999851093,7,0.9146376999560744,1.1482644999632612,0,0.475317099946551,0.6622219999553636,,,58.0,52.0,33473,61.0,
-152,-152,0,0,11,11,13,,,,,,,,,,,session,627.7746083999518,140.0,2.0,73.0,0.020083591432026197,5,1.093953000032343,1.2055288000265136,0,0.9684952000388876,1.1685902000172064,0,0.3614796999609098,0.560928399907425,,,73.0,52.0,33473,61.0,
152,-152,0,0,12,12,9,,,,,,,,,,,session,636.8481730999192,146.0,2.0,73.0,0.020083591432026197,2,1.5903027000604197,1.778124799951911,1,0.7576537999557331,0.9415642999811098,0,0.3621591000119224,0.5397115999367088,,,67.0,61.0,33473,61.0,
152,152,45,0,13,13,2,,,,,,,,,,,session,646.3369689999381,177.0,2.0,73.0,0.020083591432026197,5,0.8420149000594392,0.9795274999924004,1,0.6192440999438986,0.8365882999496534,0,0.6766421000938863,0.8455382001120597,,,52.0,49.0,33473,61.0,
152,152,-45,0,14,14,0,,,,,,,,,,,session,655.3472218000097,171.0,2.0,73.0,0.020083591432026197,4,1.135680100065656,1.370922700036317,6,0.3443342000246048,0.5126567999832332,0,0.38921679998748004,0.5563811999745667,,,67.0,49.0,33473,61.0,
-152,152,0,0,15,15,5,,,,,,,,,,,session,664.2639310999075,152.0,2.0,73.0,0.020083591432026197,5,0.9152775999391451,1.1141431999858469,6,0.36508189991582185,0.4658994999481365,0,0.3607627999735996,0.5281578999711201,,,61.0,52.0,33473,61.0,
-152,-152,90,1,0,16,15,,,,,,,,,,,session,672.3248441999312,183.0,2.0,73.0,0.020083591432026197,3,0.9922740999609232,1.2588051999919116,7,1.0955945999594405,1.2402626998955384,0,0.3278009999776259,0.5626970999874175,,,55.0,67.0,33473,61.0,
-152,152,0,1,1,17,5,,,,,,,,,,,session,682.166665699915,152.0,2.0,73.0,0.020083591432026197,3,1.1642003000015393,1.4090820000274107,7,0.9527294000145048,1.1527863000519574,0,0.40654949995223433,0.01243939995765686,,,49.0,61.0,33473,61.0,
152,-152,45,1,2,18,10,,,,,,,,,,,session,691.0916733999038,165.0,2.0,73.0,0.020083591432026197,5,1.243973599979654,1.725579799967818,0,0.47420870000496507,0.7205457000527531,0,0.5925290999002755,0.7417398999677971,,,70.0,64.0,33473,61.0,
152,152,90,1,3,19,3,,,,,,,,,,,session,700.9779904999305,128.0,2.0,73.0,0.020083591432026197,2,2.7917773000663146,2.9897197000682354,0,1.1926460999529809,1.3430304999928921,0,0.3595149000175297,0.5308517999947071,,,55.0,61.0,33473,61.0,
152,152,90,1,3,19,3,,,materials/instructions\12_break.png,711.6235946000088,719.7742418999551,0,8.013170800055377,8.148589099990204,0.011276800069026649,8.154207200044766,,,,,,,,,,,,,,,,,,,,33473,61.0,
-152,152,45,1,4,20,6,,,,,,,,,,,session,719.788057699916,152.0,2.0,73.0,0.020083591432026197,5,1.1207646999973804,1.2344439000589773,0,1.1027937000617385,1.335667800041847,0,0.3309974999865517,0.5123266000300646,,,61.0,73.0,33473,61.0,
-152,152,-45,1,5,21,4,,,,,,,,,,,session,729.3193150999723,159.0,2.0,73.0,0.020083591432026197,4,1.1479796000057831,1.3114708000794053,0,1.0606792999897152,1.214394100010395,0,0.41450000007171184,0.5758954000193626,,,73.0,52.0,33473,61.0,
-152,-152,-45,1,6,22,12,,,,,,,,,,,session,738.758838599897,165.0,2.0,73.0,0.020083591432026197,3,1.2500490000238642,1.4182976000010967,1,1.0042851000325754,1.2377654000883922,0,0.4773192999418825,0.6573985000140965,,,52.0,55.0,33473,61.0,
152,-152,0,1,7,23,9,,,,,,,,,,,session,748.2943406999111,140.0,2.0,73.0,0.020083591432026197,4,1.0454257000237703,1.243548300000839,1,1.405593500006944,1.5888137000147253,1,0.9639861999312416,1.0652734999312088,,,55.0,49.0,33473,61.0,
152,152,45,1,8,24,2,,,,,,,,,,,session,757.8548313999781,140.0,2.0,73.0,0.020083591432026197,5,1.150000900030136,1.2792940000072122,7,0.760077100014314,0.8615842000581324,1,0.34091019991319627,0.48024159995839,,,73.0,58.0,33473,61.0,
-152,152,90,1,9,25,7,,,,,,,,,,,session,766.7514397999039,159.0,2.0,73.0,0.020083591432026197,2,1.1220517000183463,1.3389266000594944,6,1.3755783999804407,1.5087742999894544,0,0.3443366999272257,0.5278681999770924,,,49.0,67.0,33473,61.0,
152,152,-45,1,10,26,0,,,,,,,,,,,session,776.416648299899,146.0,2.0,73.0,0.020083591432026197,2,1.9781922999536619,2.07788559992332,6,1.0617365000071004,1.1451373000163585,0,0.5119731000158936,0.6787500999635085,,,64.0,49.0,33473,61.0,
-152,-152,0,1,11,27,13,,,,,,,,,,,session,786.3117201999994,159.0,2.0,73.0,0.020083591432026197,2,1.0994964999845251,1.2979812999255955,7,0.5515375999966636,0.7679870000574738,0,0.3131189999403432,0.47031779994722456,,,64.0,73.0,33473,61.0,
152,-152,90,1,12,28,11,,,,,,,,,,,session,795.4572052999865,140.0,2.0,73.0,0.020083591432026197,5,1.1653516000369564,1.3895805000793189,7,1.1452422000002116,1.3454303999897093,0,0.41859689995180815,0.01115339994430542,,,52.0,61.0,33473,61.0,
152,152,0,1,13,29,1,,,,,,,,,,,session,804.345214299974,177.0,2.0,73.0,0.020083591432026197,5,0.7312691999832168,1.1608492999803275,0,0.395295700058341,0.5624025000724941,0,0.2824455000227317,0.444860800052993,,,73.0,55.0,33473,61.0,
152,-152,-45,1,14,30,8,,,,,,,,,,,session,813.2977819999214,159.0,2.0,73.0,0.020083591432026197,4,2.0859196999808773,2.2556331999367103,0,0.2905843999469653,0.44348250003531575,0,0.3119340999983251,0.45111080002970994,,,64.0,61.0,33473,61.0,
-152,-152,45,1,15,31,14,,,,,,,,,,,session,822.8419533999404,146.0,2.0,73.0,0.020083591432026197,3,0.9478553999215364,1.1491491999477148,1,0.5286111999303102,0.8848077999427915,1,1.1287138999905437,1.3456070999382064,,,58.0,61.0,33473,61.0,
152,-152,45,2,0,32,10,,,,,,,,,,,session,832.2801877999445,128.0,2.0,73.0,0.020083591432026197,4,1.0255193000193685,1.2256268000928685,1,1.0069117000093684,1.0928313999902457,0,0.32582949998322874,0.44400000001769513,,,58.0,49.0,33473,61.0,
-152,152,90,2,1,33,7,,,,,,,,,,,session,840.6184386999812,159.0,2.0,73.0,0.020083591432026197,5,1.2980586000485346,1.4878372000530362,6,0.3405738999135792,0.4581254000077024,0,0.32386990007944405,0.4739227000391111,,,55.0,73.0,33473,61.0,
-152,-152,90,2,2,34,15,,,,,,,,,,,session,849.3940122999484,159.0,2.0,73.0,0.020083591432026197,3,0.909620700054802,1.0811197001021355,6,0.31294000009074807,0.4931957999942824,0,0.30141139996703714,0.48035699990577996,,,55.0,61.0,33473,61.0,
152,152,-45,2,3,35,0,,,,,,,,,,,session,857.7162910999032,146.0,2.0,73.0,0.020083591432026197,4,1.1498442000010982,1.3382430999772623,7,0.2974638999439776,0.4643390999408439,0,0.3263551000272855,0.5090101000387222,,,61.0,67.0,33473,61.0,
-152,152,-45,2,4,36,4,,,,,,,,,,,session,866.1551521999063,140.0,2.0,73.0,0.020083591432026197,3,1.4072124999947846,1.6237350999144837,0,1.3102684000041336,1.427187000052072,0,0.5996472999686375,0.7343259999761358,,,73.0,49.0,33473,61.0,
152,-152,90,2,5,37,11,,,,,,,,,,,session,876.0314084999263,171.0,2.0,73.0,0.020083591432026197,4,0.8746467999881133,1.0925813999492675,0,1.7823047999991104,1.8824654000345618,1,0.6464847000315785,0.8960613000672311,,,64.0,73.0,33473,61.0,
152,152,0,2,6,38,1,,,,,,,,,,,session,886.6520308000036,165.0,2.0,73.0,0.020083591432026197,3,1.039721200009808,1.256751799955964,1,1.6393597000278533,1.7595159000484273,0,0.4401419999776408,0.5846555000171065,,,61.0,49.0,33473,61.0,
152,-152,0,2,7,39,9,,,,,,,,,,,session,896.4791140999878,165.0,2.0,73.0,0.020083591432026197,4,0.6234769000438973,0.9373775999993086,0,0.426191300037317,0.5890986999729648,6,1.662947200005874,1.7980171999661252,,,55.0,73.0,33473,61.0,
152,-152,0,2,7,39,9,,,materials/instructions\12_break.png,906.471290599904,918.1072071999079,0,11.5357772000134,11.63392880000174,0.012730900081805885,11.648237999994308,,,,,,,,,,,,,,,,,,,,33473,61.0,
-152,-152,-45,2,8,40,12,,,,,,,,,,,session,918.1297627999447,152.0,2.0,73.0,0.020083591432026197,3,0.8693531000753865,1.1343370000831783,1,1.3566537000006065,1.5110476999543607,1,0.8124726000241935,1.0320392999565229,,,58.0,55.0,33473,61.0,
152,-152,-45,2,9,41,8,,,,,,,,,,,session,927.9212000999833,134.0,2.0,73.0,0.020083591432026197,2,1.6940036999294534,1.7838385999202728,0,0.3596925000892952,0.5051863000262529,0,0.28732929995749146,0.44210759992711246,,,73.0,70.0,33473,61.0,
152,152,45,2,10,42,2,,,,,,,,,,,session,936.9483891999116,183.0,2.0,73.0,0.020083591432026197,5,0.3638773000566289,0.5975834999699146,7,0.8675494999624789,1.0455925000132993,1,0.47442960005719215,0.5745436000870541,,,70.0,67.0,33473,61.0,
-152,152,0,2,11,43,5,,,,,,,,,,,session,946.2168795999605,183.0,2.0,73.0,0.020083591432026197,5,0.8919387999922037,1.0916971999686211,0,1.3119631999870762,1.4313824999844655,1,0.8936774999601766,1.0799182000337169,,,49.0,55.0,33473,61.0,
152,152,90,2,12,44,3,,,,,,,,,,,session,956.1913090999005,159.0,2.0,73.0,0.020083591432026197,5,0.7668563000624999,0.9372719000093639,1,0.4832214000634849,0.6310684999916703,1,0.29565440001897514,0.39583669998683035,,,55.0,67.0,33473,61.0,
-152,-152,45,2,13,45,14,,,,,,,,,,,session,964.5308907999424,159.0,2.0,73.0,0.020083591432026197,2,1.6233995000366122,1.7758289000485092,1,0.31600820005405694,0.4567216000286862,0,0.5313907000236213,0.7216257000109181,,,73.0,52.0,33473,61.0,
-152,-152,0,2,14,46,13,,,,,,,,,,,session,973.8908441999229,177.0,2.0,73.0,0.020083591432026197,5,1.1289886999875307,1.2632266998989508,6,0.7985500999493524,0.8486913999076933,0,0.44543999992311,0.5933871999150142,,,70.0,64.0,33473,61.0,
-152,152,45,2,15,47,6,,,,,,,,,,,session,983.5926107999403,159.0,2.0,73.0,0.020083591432026197,2,1.248909000074491,1.3718201000010595,6,0.4253150000004098,0.5250018999213353,0,0.5616693999618292,0.7951370000373572,,,61.0,67.0,33473,61.0,
-152,152,0,3,0,48,5,,,,,,,,,,,session,992.7158443999942,134.0,2.0,73.0,0.020083591432026197,3,1.3426551999291405,1.5309963999316096,6,0.3954436000203714,0.5336028999881819,0,0.2862298000836745,0.4626801999984309,,,70.0,58.0,33473,61.0,
-152,152,90,3,1,49,7,,,,,,,,,,,session,1001.2911108999979,183.0,2.0,73.0,0.020083591432026197,3,1.1998125999234617,1.3979904999723658,0,0.32995559996925294,0.5480863999109715,0,0.6116419000318274,0.733029399998486,,,73.0,49.0,33473,61.0,
152,152,90,3,2,50,3,,,,,,,,,,,session,1010.7885494999355,177.0,2.0,73.0,0.020083591432026197,5,0.4441915999632329,0.6324383999453858,6,0.6151195999700576,0.7297609000233933,6,0.7452048000413924,0.899912100052461,,,61.0,58.0,33473,61.0,
-152,-152,0,3,3,51,13,,,,,,,,,,,session,1019.5773627999006,134.0,2.0,73.0,0.020083591432026197,4,1.2656937999418005,1.2690924999769777,7,0.9624772999668494,1.112295200000517,0,1.0991412000730634,1.2992836000630632,,,52.0,58.0,33473,61.0,
152,-152,90,3,4,52,11,,,,,,,,,,,session,1028.9633525999961,183.0,2.0,73.0,0.020083591432026197,4,1.5475383000448346,1.7308359999442473,6,1.0707162999315187,1.169836699962616,1,0.5136536998907104,0.6329520998988301,,,73.0,58.0,33473,61.0,
152,152,-45,3,5,53,0,,,,,,,,,,,session,1039.3740855999058,183.0,2.0,73.0,0.020083591432026197,5,0.9798436000710353,1.1461461000144482,1,0.9119600999401882,0.993507899926044,0,1.2953421999700367,1.409674199996516,,,67.0,70.0,33473,61.0,
-152,152,-45,3,6,54,4,,,,,,,,,,,session,1049.8098222999834,165.0,2.0,73.0,0.020083591432026197,2,0.7338494999567047,0.9568225999828428,0,0.44438809994608164,0.6302384999580681,1,0.7454292000038549,0.9956103001022711,,,73.0,61.0,33473,61.0,
152,-152,0,3,7,55,9,,,,,,,,,,,session,1059.03651669994,159.0,2.0,73.0,0.020083591432026197,4,0.7593004000373185,0.9913875999627635,7,0.4501115999883041,0.6331699999282137,0,0.39953300007618964,0.5612047000322491,,,55.0,67.0,33473,61.0,
152,152,0,3,8,56,1,,,,,,,,,,,session,1067.5924914999632,183.0,2.0,73.0,0.020083591432026197,3,1.0271683000028133,1.2606588000198826,0,0.398764600045979,0.5670308000408113,0,0.6908926999894902,0.8459675000049174,,,64.0,55.0,33473,61.0,
-152,-152,45,3,9,57,14,,,,,,,,,,,session,1077.121251799981,159.0,2.0,73.0,0.020083591432026197,4,0.9284941999940202,1.1453414000570774,1,0.33060079999268055,0.5170837000478059,0,0.5378379999892786,0.7316043000901118,,,49.0,52.0,33473,61.0,
152,152,45,3,10,58,2,,,,,,,,,,,session,1085.3699958999641,146.0,2.0,73.0,0.020083591432026197,5,0.8549364999635145,1.0090976000064984,6,0.28070229990407825,0.4295214999001473,0,0.7285573999397457,0.8953152999747545,,,67.0,58.0,33473,61.0,
-152,152,45,3,11,59,6,,,,,,,,,,,session,1093.8972107999725,171.0,2.0,73.0,0.020083591432026197,3,0.4094540000660345,0.6903256000950933,0,0.4115077001042664,0.5969742001034319,0,2.0268392000580207,2.200367500074208,,,58.0,70.0,33473,61.0,
-152,152,45,3,11,59,6,,,materials/instructions\12_break.png,1104.1237116999691,1117.4092522999272,0,13.166911199921742,13.283552499953657,0.011123400065116584,13.291009700042196,,,,,,,,,,,,,,,,,,,,33473,61.0,
152,-152,45,3,12,60,10,,,,,,,,,,,session,1117.4252209999831,177.0,2.0,73.0,0.020083591432026197,5,1.1868712999857962,1.3233543999958783,1,0.8295212000375614,0.9857848000247031,0,0.34647849993780255,0.533300600014627,,,67.0,58.0,33473,61.0,
152,-152,-45,3,13,61,8,,,,,,,,,,,session,1127.0061874999665,177.0,2.0,73.0,0.020083591432026197,2,0.8719516999553889,0.9366736999945715,1,0.8172878000186756,0.8957541999407113,0,0.8254645999986678,1.0595841000322253,,,58.0,61.0,33473,61.0,
-152,-152,90,3,14,62,15,,,,,,,,,,,session,1136.533228199929,128.0,2.0,73.0,0.020083591432026197,3,0.9209059999557212,1.1403448999626562,6,0.38282520009670407,0.6814690000610426,0,0.7294158999575302,0.8822554999496788,,,52.0,70.0,33473,61.0,
-152,-152,-45,3,15,63,12,,,,,,,,,,,session,1145.1378863999853,140.0,2.0,73.0,0.020083591432026197,3,0.7986271999543533,1.015498699969612,1,1.5488351000240073,1.667672700015828,1,0.5700924000702798,0.6582363999914378,,,52.0,55.0,33473,61.0,
152,-152,-45,4,0,64,8,,,,,,,,,,,session,1154.1626532999799,152.0,2.0,73.0,0.020083591432026197,2,1.0595891000702977,1.236154600046575,7,0.3403698999900371,0.47614889999385923,0,0.3087508000899106,0.4922377000330016,,,73.0,73.0,33473,61.0,
152,-152,45,4,1,65,10,,,,,,,,,,,session,1163.0159208999248,152.0,2.0,73.0,0.020083591432026197,4,0.9966736000496894,1.2158745999913663,7,0.48848349996842444,0.6514180999947712,1,0.43968069995753467,0.5673586999764666,,,67.0,52.0,33473,61.0,
-152,-152,90,4,2,66,15,,,,,,,,,,,session,1171.4720443999395,140.0,2.0,73.0,0.020083591432026197,2,1.057489600032568,1.2363425000803545,1,0.9362065000459552,1.0705079999752343,0,0.6775675000390038,0.8275112000992522,,,55.0,73.0,33473,61.0,
152,-152,0,4,3,67,9,,,,,,,,,,,session,1180.7459469999885,183.0,2.0,73.0,0.020083591432026197,5,1.1488387999124825,1.2683138999855146,6,0.5641059000045061,0.6938335000304505,0,0.6163866999559104,0.7628525999607518,,,70.0,58.0,33473,61.0,
152,-152,90,4,4,68,11,,,,,,,,,,,session,1190.3507919999538,171.0,2.0,73.0,0.020083591432026197,2,1.3615196000318974,1.5399095999309793,1,0.45148100005462766,0.6186195999616757,0,0.49408229999244213,0.6773614999838173,,,49.0,67.0,33473,61.0,
152,152,45,4,5,69,2,,,,,,,,,,,session,1199.643603399978,146.0,2.0,73.0,0.020083591432026197,5,0.953502899967134,1.0913311999756843,1,0.7845821999944746,0.9801357999676839,0,0.011698200018145144,0.22985390003304929,,,73.0,61.0,33473,61.0,
-152,152,45,4,6,70,6,,,,,,,,,,,session,1208.230323900003,177.0,2.0,73.0,0.020083591432026197,4,1.2985981999663636,1.5009459999855608,7,0.5050244000740349,0.6151860000099987,0,0.606537300045602,0.790432000067085,,,73.0,70.0,33473,61.0,
152,152,0,4,7,71,1,,,,,,,,,,,session,1217.954879399971,177.0,2.0,73.0,0.020083591432026197,2,1.1680320999585092,1.4583375999936834,0,0.676202500006184,0.8073141999775544,0,0.5454856998985633,0.7316272999159992,,,52.0,52.0,33473,61.0,
-152,-152,-45,4,8,72,12,,,,,,,,,,,session,1227.3184974999167,183.0,2.0,73.0,0.020083591432026197,3,0.6467594999121502,0.8961157999001443,1,0.882706500007771,0.9627590000163764,1,1.1059751999564469,1.2230698999483138,,,52.0,64.0,33473,61.0,
-152,152,0,4,9,73,5,,,,,,,,,,,session,1237.0556288999505,140.0,2.0,73.0,0.020083591432026197,2,1.2592444999609143,1.4153657000279054,1,0.5179758999729529,0.6458789000753313,0,0.81226679997053,0.9988394000101835,,,64.0,55.0,33473,61.0,
-152,152,-45,4,10,74,4,,,,,,,,,,,session,1246.1315480999183,183.0,2.0,73.0,0.020083591432026197,5,0.9980908000143245,1.114587499992922,6,0.40640340000391006,0.5744259000057355,0,0.5972100999206305,0.7984312999760732,,,55.0,64.0,33473,61.0,
-152,-152,0,4,11,75,13,,,,,,,,,,,session,1255.4013227999676,140.0,2.0,73.0,0.020083591432026197,4,1.287341200048104,1.4637164000887424,7,0.31273819995112717,0.5123940999619663,0,0.8164666999364272,1.00281539990101,,,61.0,70.0,33473,61.0,
-152,152,90,4,12,76,7,,,,,,,,,,,session,1264.61338539992,152.0,2.0,73.0,0.020083591432026197,5,1.1225722000235692,1.2191338000120595,0,0.2891639000736177,0.5065874001011252,0,0.28811040008440614,0.489608500036411,,,70.0,61.0,33473,61.0,
-152,-152,45,4,13,77,14,,,,,,,,,,,session,1273.1680221999995,171.0,2.0,73.0,0.020083591432026197,3,1.178269000025466,1.4784565001027659,0,0.5369490999728441,0.7850627999287099,0,0.6562810000032187,0.8897032999666408,,,55.0,49.0,33473,61.0,
152,152,90,4,14,78,3,,,,,,,,,,,session,1282.5066483999835,165.0,2.0,73.0,0.020083591432026197,2,1.0759009999455884,1.2367465000133961,1,0.37969680002424866,0.48044700000900775,0,0.4966186999808997,0.7307652999879792,,,52.0,67.0,33473,61.0,
152,152,-45,4,15,79,0,,,,,,,,,,,session,1291.3145133999642,183.0,2.0,73.0,0.020083591432026197,5,0.45508410001639277,0.6730777999619022,1,0.5616678000660613,0.678412500070408,1,1.0822375999996439,1.1809640999417752,,,52.0,70.0,33473,61.0,
152,152,-45,4,15,79,0,,,materials/instructions\12_break.png,1300.65228629997,1316.81425950001,0,15.99033950001467,16.1601934999926,0.02195730002131313,16.16344020003453,,,,,,,,,,,,,,,,,,,,33473,61.0,
-152,-152,-45,5,0,80,12,,,,,,,,,,,session,1316.8257049999665,134.0,2.0,73.0,0.020083591432026197,5,1.0529787000268698,1.1363695000763983,6,0.32338269997853786,0.5382046999875456,0,0.36804139998275787,0.8025467999977991,,,55.0,73.0,33473,61.0,
-152,-152,0,5,1,81,13,,,,,,,,,,,session,1325.227564199944,165.0,2.0,73.0,0.020083591432026197,3,1.1129997000098228,1.2969186999835074,0,0.42936930002178997,0.6626504000741988,1,1.0502518999855965,1.111838600016199,,,52.0,73.0,33473,61.0,
152,152,-45,5,2,82,0,,,,,,,,,,,session,1334.8315718999365,159.0,2.0,73.0,0.020083591432026197,5,0.9701209999620914,1.203876500017941,7,0.985854999977164,1.23826310003642,0,1.4979217000072822,1.6869217000203207,,,70.0,55.0,33473,61.0,
152,-152,0,5,3,83,9,,,,,,,,,,,session,1345.327239700011,128.0,2.0,73.0,0.020083591432026197,4,0.8244533999823034,1.0231366000371054,7,0.4463635999709368,0.6165426999796182,0,0.40296149998903275,0.6033650999888778,,,67.0,58.0,33473,61.0,
152,-152,90,5,4,84,11,,,,,,,,,,,session,1353.3751264999155,183.0,2.0,73.0,0.020083591432026197,5,1.1012459000339732,1.3818100000498816,6,0.3967402999987826,0.5751628000289202,0,0.7213440999621525,0.9383135000243783,,,52.0,58.0,33473,61.0,
152,152,45,5,5,85,2,,,,,,,,,,,session,1362.8346192999743,128.0,2.0,73.0,0.020083591432026197,2,1.292962500010617,1.4931616000831127,6,0.4319876000517979,0.5654605999588966,0,0.943747500074096,1.0473829000256956,,,58.0,70.0,33473,61.0,
-152,-152,90,5,6,86,15,,,,,,,,,,,session,1371.7930385000072,140.0,2.0,73.0,0.020083591432026197,4,1.0226312999147922,1.2401313999434933,1,0.41369079996366054,0.5580618999665603,0,0.5057803000090644,0.7531714000506327,,,64.0,49.0,33473,61.0,
152,-152,-45,5,7,87,8,,,,,,,,,,,session,1380.400164599996,171.0,2.0,73.0,0.020083591432026197,3,0.8195465999888256,0.9825896000256762,1,0.3056549000320956,0.5049399000126868,0,2.8669622000306845,3.0836831999477,,,70.0,58.0,33473,61.0,
152,152,0,5,8,88,1,,,,,,,,,,,session,1391.5727659999393,171.0,2.0,73.0,0.020083591432026197,3,2.24540260003414,2.393402599962428,1,0.32536969997454435,0.49574470007792115,0,0.5292333000106737,0.7482974999584258,,,49.0,49.0,33473,61.0,
152,152,90,5,9,89,3,,,,,,,,,,,session,1401.382978699985,146.0,2.0,73.0,0.020083591432026197,2,1.2857979000546038,1.413367500063032,0,0.4511693000094965,0.6507378000533208,0,1.6848107000114396,1.8637432999676093,,,55.0,55.0,33473,61.0,
-152,152,-45,5,10,90,4,,,,,,,,,,,session,1411.1888193999184,183.0,2.0,73.0,0.020083591432026197,4,0.5976909999735653,0.8012705999426544,6,1.4596954000880942,1.6097042000619695,0,0.761888200067915,0.9795713999774307,,,58.0,55.0,33473,61.0,
-152,152,45,5,11,91,6,,,,,,,,,,,session,1421.1973455999978,134.0,2.0,73.0,0.020083591432026197,5,1.3479164000600576,1.5020935999928042,1,0.7296757999574766,0.9464933999115601,0,0.6547614000737667,0.8475890000117943,,,67.0,55.0,33473,61.0,
-152,152,90,5,12,92,7,,,,,,,,,,,session,1430.3698151999852,177.0,2.0,73.0,0.020083591432026197,2,1.1255756999598816,1.260134799988009,7,1.2995974000077695,1.4394047000678256,0,0.011315200012177229,0.11322759999893606,,,49.0,73.0,33473,61.0,
-152,152,0,5,13,93,5,,,,,,,,,,,session,1439.89289249992,159.0,2.0,73.0,0.020083591432026197,4,0.46593269996810704,0.7155241000000387,1,1.1683279999997467,1.3290121000027284,1,1.1157755999593064,1.3508372999494895,,,49.0,67.0,33473,61.0,
152,-152,45,5,14,94,10,,,,,,,,,,,session,1449.45654439996,140.0,2.0,73.0,0.020083591432026197,5,0.8003303000004962,0.9608965999213979,1,0.3071695000398904,0.4675015000393614,0,0.42855760001111776,0.6620053000515327,,,73.0,70.0,33473,61.0,
-152,-152,45,5,15,95,14,,,,,,,,,,,session,1457.8931879999582,165.0,2.0,73.0,0.020083591432026197,4,1.3172045000828803,1.533622800023295,6,0.5953798999544233,0.8627417999086902,0,0.3633479999843985,0.9282008999725804,,,64.0,49.0,33473,61.0,
-152,152,45,6,0,96,6,,,,,,,,,,,session,1467.6105237999,152.0,2.0,73.0,0.020083591432026197,5,1.2590980000095442,1.3867848999798298,7,0.2998796000611037,0.4553861999884248,0,0.31489109992980957,0.5150673999451101,,,52.0,67.0,33473,61.0,
152,-152,-45,6,1,97,8,,,,,,,,,,,session,1475.9880349999294,183.0,2.0,73.0,0.020083591432026197,3,0.7281079000094905,0.8592581000411883,0,0.4092058000387624,0.5968294000485912,0,0.3203878999920562,0.5462760999798775,,,49.0,58.0,33473,61.0,
-152,-152,0,6,2,98,13,,,,,,,,,,,session,1484.494321999955,177.0,2.0,73.0,0.020083591432026197,3,0.8146992999827489,0.9855978999985382,0,0.34020330000203103,0.5241247999947518,0,0.3778539999620989,0.682838200009428,,,58.0,55.0,33473,61.0,
152,-152,90,6,3,99,11,,,,,,,,,,,session,1493.269938299898,171.0,2.0,73.0,0.020083591432026197,5,0.8577268999069929,0.975089899962768,7,1.250289999996312,1.4100237999809906,1,1.0564933000132442,1.2012251999694854,,,61.0,52.0,33473,61.0,
152,-152,90,6,3,99,11,,,materials/instructions\12_break.png,1503.287507299916,1517.7480404999806,0,14.241827100049704,14.458555900026113,0.024396699969656765,14.466335099888965,,,,,,,,,,,,,,,,,,,,33473,61.0,
-152,152,90,6,4,100,7,,,,,,,,,,,session,1517.7643357999623,159.0,2.0,73.0,0.020083591432026197,2,3.5088974999962375,3.6301784000825137,0,0.3790157000767067,0.5789455000776798,0,0.27743030001875013,0.5178871999960393,,,58.0,67.0,33473,61.0,
-152,152,0,6,5,101,5,,,,,,,,,,,session,1528.8845342999557,152.0,2.0,73.0,0.020083591432026197,5,0.8121975999092683,1.114393699914217,1,0.6264698999002576,0.8407769999466836,0,0.6522926000179723,0.8729095999151468,,,61.0,49.0,33473,61.0,
152,-152,45,6,6,102,10,,,,,,,,,,,session,1537.7924084999831,183.0,2.0,73.0,0.020083591432026197,4,1.1153516999911517,1.3626074000494555,0,0.527915499988012,0.7447755999164656,0,0.6652712000068277,0.84988550003618,,,52.0,73.0,33473,61.0,
152,152,90,6,7,103,3,,,,,,,,,,,session,1547.7105947999517,134.0,2.0,73.0,0.020083591432026197,3,0.8731645999941975,1.1224037999054417,6,0.4689453999744728,0.6639122000196949,0,0.5123432000400499,0.7339430000865832,,,61.0,64.0,33473,61.0,
-152,-152,45,6,8,104,14,,,,,,,,,,,session,1556.2350153999869,152.0,2.0,73.0,0.020083591432026197,3,0.44500140007585287,0.6453902000794187,1,0.31794360000640154,0.42451609997078776,0,0.43662399996537715,0.6371895999182016,,,55.0,61.0,33473,61.0,
152,152,-45,6,9,105,0,,,,,,,,,,,session,1563.9725303999148,165.0,2.0,73.0,0.020083591432026197,5,0.4707537000067532,0.6587155000306666,7,0.5668399001006037,0.8195581000763923,1,0.4450959999812767,0.5784723999677226,,,61.0,73.0,33473,61.0,
-152,-152,-45,6,10,106,12,,,,,,,,,,,session,1572.6605581999756,171.0,2.0,73.0,0.020083591432026197,2,1.0947626000270247,1.294522500014864,6,1.0780921999830753,1.193947600084357,0,0.47744119993876666,0.8945870000170544,,,49.0,55.0,33473,61.0,
152,-152,0,6,11,107,9,,,,,,,,,,,session,1582.420755499974,171.0,2.0,73.0,0.020083591432026197,2,0.7600947000319138,1.023570099961944,0,0.6418700000504032,0.8791088999714702,0,1.082931299926713,1.3336213999427855,,,61.0,61.0,33473,61.0,
152,152,45,6,12,108,2,,,,,,,,,,,session,1592.214398299926,128.0,2.0,73.0,0.020083591432026197,5,0.3542146999388933,0.5701199999311939,7,0.8769552001031116,1.0068521000212058,1,1.3132086999248713,1.4297958000097424,,,52.0,73.0,33473,61.0,
-152,-152,90,6,13,109,15,,,,,,,,,,,session,1601.098944999976,177.0,2.0,73.0,0.020083591432026197,4,1.0575724999653175,1.2792717999545857,1,1.1746886000037193,1.3073012999957427,0,0.3693601000122726,0.6312899999320507,,,55.0,64.0,33473,61.0,
-152,152,-45,6,14,110,4,,,,,,,,,,,session,1610.9092345999088,183.0,2.0,73.0,0.020083591432026197,2,1.4464031000388786,1.6316875000484288,0,1.1818563000997528,1.4314645000267774,0,0.6660112999379635,0.881400499958545,,,58.0,52.0,33473,61.0,
152,152,0,6,15,111,1,,,,,,,,,,,session,1621.449174099951,140.0,2.0,73.0,0.020083591432026197,3,0.4274384001037106,0.6611561001045629,6,1.2328986000502482,1.3773296000435948,0,0.3800494000315666,0.5821715999627486,,,73.0,64.0,33473,61.0,
152,-152,45,7,0,112,10,,,,,,,,,,,session,1630.3073900999734,159.0,2.0,73.0,0.020083591432026197,2,1.2277452000416815,1.3965147000271827,1,0.3968553999438882,0.5469472999684513,0,0.6278877999866381,0.8594342999858782,,,61.0,58.0,33473,61.0,
152,-152,90,7,1,113,11,,,,,,,,,,,session,1639.4599572999869,140.0,2.0,73.0,0.020083591432026197,5,1.33218999998644,1.5352142000338063,7,0.4459859000053257,0.5638155000051484,0,0.5448783000465482,0.6803154000081122,,,49.0,73.0,33473,61.0,
152,152,-45,7,2,114,0,,,,,,,,,,,session,1648.2543490999378,128.0,2.0,73.0,0.020083591432026197,2,1.094734900048934,1.2244737000437453,6,0.44336480007041246,0.5912995999678969,0,0.831131900078617,1.031148700043559,,,64.0,58.0,33473,61.0,
152,152,0,7,3,115,1,,,,,,,,,,,session,1657.009020700003,183.0,2.0,73.0,0.020083591432026197,3,0.8146227999823168,1.0623752999817953,0,2.1357756999786943,2.3848639000207186,0,0.7871999000199139,1.5523123000748456,,,58.0,55.0,33473,61.0,
-152,152,45,7,4,116,6,,,,,,,,,,,session,1668.6516724999528,146.0,2.0,73.0,0.020083591432026197,4,1.2351322000613436,1.4354758000699803,7,0.37748550006654114,0.6097723999992013,0,0.5803398999851197,0.8131372999632731,,,73.0,49.0,33473,61.0,
-152,152,0,7,5,117,5,,,,,,,,,,,session,1677.5867616999894,159.0,2.0,73.0,0.020083591432026197,2,1.3212553000776097,1.408030700054951,1,1.0656883999472484,1.2468380999052897,0,0.5452560000121593,0.7621482000686228,,,61.0,52.0,33473,61.0,
152,-152,0,7,6,118,9,,,,,,,,,,,session,1687.1158283000113,159.0,2.0,73.0,0.020083591432026197,4,0.9937568999594077,1.2262868999969214,0,0.31776090001221746,0.6677319000009447,0,0.5679240999743342,0.8490925000514835,,,55.0,73.0,33473,61.0,
152,-152,-45,7,7,119,8,,,,,,,,,,,session,1696.240006799926,152.0,2.0,73.0,0.020083591432026197,3,0.664160400046967,0.8811615000013262,6,0.4165101000107825,0.5167109000030905,0,0.9832687999587506,1.1819032999919727,,,73.0,52.0,33473,61.0,
152,-152,-45,7,7,119,8,,,materials/instructions\12_break.png,1705.1336233000038,1714.6148843999254,0,9.312585700070485,9.47842020005919,0.010375200072303414,9.487036800011992,,,,,,,,,,,,,,,,,,,,33473,61.0,
-152,152,-45,7,8,120,4,,,,,,,,,,,session,1714.6311738999793,146.0,2.0,73.0,0.020083591432026197,5,1.13900189998094,1.2385673000244424,1,0.7221947000361979,0.8501627000514418,0,0.585557600017637,0.803816800005734,,,55.0,64.0,33473,61.0,
152,152,90,7,9,121,3,,,,,,,,,,,session,1723.695183099946,134.0,2.0,73.0,0.020083591432026197,2,0.45479180000256747,0.7701523000141606,6,0.31041080004069954,0.5480996000114828,0,0.6282346999505535,0.9428826000075787,,,58.0,58.0,33473,61.0,
-152,-152,90,7,10,122,15,,,,,,,,,,,session,1731.812998099951,159.0,2.0,73.0,0.020083591432026197,4,1.034174400032498,1.1885007000528276,1,1.046222799923271,1.262713999953121,0,0.6084038000553846,0.8288273999933153,,,67.0,67.0,33473,61.0,
-152,152,90,7,11,123,7,,,,,,,,,,,session,1741.5445645999862,183.0,2.0,73.0,0.020083591432026197,5,0.7135554000269622,0.8613813000265509,7,0.486772800097242,0.6462566000409424,0,0.2818773000035435,0.46844949992373586,,,64.0,49.0,33473,61.0,
-152,-152,0,7,12,124,13,,,,,,,,,,,session,1750.319560199976,140.0,2.0,73.0,0.020083591432026197,3,0.38240300002507865,0.5823639000300318,0,0.7316934000700712,0.8725917000556365,6,0.31085319991689175,0.45103749993722886,,,55.0,73.0,33473,61.0,
152,152,45,7,13,125,2,,,,,,,,,,,session,1758.2065283999545,134.0,2.0,73.0,0.020083591432026197,4,0.9643441999796778,1.2319459998980165,1,0.5468783000251278,0.6783554999856278,0,0.7119804000249133,0.9121020000893623,,,70.0,67.0,33473,61.0,
-152,-152,45,7,14,126,14,,,,,,,,,,,session,1767.2434517999645,146.0,2.0,73.0,0.020083591432026197,5,0.42991099995560944,0.6972334999591112,6,0.37938379996921867,0.5508433000650257,0,0.48161909996997565,0.6659539999673143,,,58.0,58.0,33473,61.0,
-152,-152,-45,7,15,127,12,,,,,,,,,,,session,1775.1326335999183,165.0,2.0,73.0,0.020083591432026197,3,0.48519389994908124,0.6798624999355525,1,0.713837799965404,0.8141361000016332,1,1.103113100049086,1.1697569000534713,,,58.0,61.0,33473,61.0,
152,-152,-45,8,0,128,8,,,,,,,,,,,session,1784.1905232999707,128.0,2.0,73.0,0.020083591432026197,4,1.3622975000180304,1.5654424000531435,0,1.7586746000451967,1.9775307000381872,0,1.169077099999413,1.3852875999873504,,,49.0,52.0,33473,61.0,
-152,152,-45,8,1,129,4,,,,,,,,,,,session,1794.7028965000063,165.0,2.0,73.0,0.020083591432026197,3,0.8807085000444204,1.0771397000644356,7,0.40084969997406006,0.5994691000087187,0,0.4823098999913782,0.6938775000162423,,,55.0,58.0,33473,61.0,
152,-152,0,8,2,130,9,,,,,,,,,,,session,1803.2500629998976,128.0,2.0,73.0,0.020083591432026197,3,1.6232094999868423,1.7556361999595538,1,1.0199443999445066,1.1645800999831408,0,0.5313133000163361,0.6692928000120446,,,52.0,67.0,33473,61.0,
152,152,-45,8,3,131,0,,,,,,,,,,,session,1812.7159917999525,165.0,2.0,73.0,0.020083591432026197,2,1.0122616000007838,1.210824399953708,0,1.2324179999995977,1.382562299957499,0,0.5296030999161303,0.6867753999540582,,,70.0,52.0,33473,61.0,
-152,-152,45,8,4,132,14,,,,,,,,,,,session,1822.4584802999161,146.0,2.0,73.0,0.020083591432026197,5,0.8335850000148639,0.9558560999576002,6,1.2727175999898463,1.4057534000603482,0,0.2923896999564022,0.509078299975954,,,64.0,70.0,33473,61.0,
152,-152,90,8,5,133,11,,,,,,,,,,,session,1831.592341999989,165.0,2.0,73.0,0.020083591432026197,4,1.0342259000753984,1.2033464000560343,1,1.4196849999716505,1.5034354999661446,0,0.5435058000730351,0.7313840000424534,,,52.0,58.0,33473,61.0,
152,152,45,8,6,134,2,,,,,,,,,,,session,1841.319070699974,146.0,2.0,73.0,0.020083591432026197,2,0.9274277000222355,1.1887589000398293,7,0.4795454000122845,0.6640718999551609,0,0.4095332999713719,0.5356054999865592,,,49.0,49.0,33473,61.0,
-152,152,90,8,7,135,7,,,,,,,,,,,session,1849.4357676999643,146.0,2.0,73.0,0.020083591432026197,3,1.0287575999973342,1.2047338000265881,0,0.5337211000733078,0.7036019000224769,0,0.604968500090763,0.7714985000202432,,,52.0,67.0,33473,61.0,
-152,152,45,8,8,136,6,,,,,,,,,,,session,1858.2294329999713,177.0,2.0,73.0,0.020083591432026197,3,0.60164230002556,0.849001899943687,7,1.3999560999218374,1.5815427999477834,0,0.7408799999393523,0.9394343999447301,,,64.0,52.0,33473,61.0,
152,-152,45,8,9,137,10,,,,,,,,,,,session,1867.987834499916,140.0,2.0,73.0,0.020083591432026197,2,1.3582855000859126,1.4569325000047684,1,0.6314322000835091,0.7298179999925196,0,0.5609884000150487,0.6944777000462636,,,61.0,73.0,33473,61.0,
-152,-152,90,8,10,138,15,,,,,,,,,,,session,1877.1281319999835,152.0,2.0,73.0,0.020083591432026197,3,1.0269837999949232,1.222636800026521,6,0.34165879990905523,0.5918013999471441,0,1.0445832998957485,1.2414831999922171,,,73.0,49.0,33473,61.0,
152,152,90,8,11,139,3,,,,,,,,,,,session,1886.5010376999853,134.0,2.0,73.0,0.020083591432026197,3,1.731269899988547,1.8825760999461636,1,0.2751068000216037,0.4258575999410823,0,0.7074027999769896,1.0638935000170022,,,64.0,70.0,33473,61.0,
152,152,90,8,11,139,3,,,materials/instructions\12_break.png,1896.0441705998965,1908.562847299967,0,12.337552900076844,12.516880900016986,0.011268900008872151,12.531438400037587,,,,,,,,,,,,,,,,,,,,33473,61.0,
152,152,0,8,12,140,1,,,,,,,,,,,session,1908.585965699982,152.0,2.0,73.0,0.020083591432026197,3,0.8957013000035658,1.108481000061147,7,0.5853747999062762,0.754598299972713,0,0.7919068000046536,1.0086898000445217,,,49.0,52.0,33473,61.0,
-152,152,0,8,13,141,5,,,,,,,,,,,session,1917.3925798999844,177.0,2.0,73.0,0.020083591432026197,2,0.7007586000254378,0.7965767000569031,0,0.5715966999996454,0.7400500000221655,1,0.9159101999830455,1.013270499999635,,,52.0,64.0,33473,61.0,
-152,-152,-45,8,14,142,12,,,,,,,,,,,session,1926.5447601999622,177.0,2.0,73.0,0.020083591432026197,5,1.127531799953431,1.2625781999668106,6,1.5287189999362454,1.5798540000105277,0,0.5818671999732032,0.8271756999893114,,,70.0,61.0,33473,61.0,
-152,-152,0,8,15,143,13,,,,,,,,,,,session,1936.9564091999782,146.0,2.0,73.0,0.020083591432026197,3,0.5620868999976665,0.7789588000159711,0,0.36672170006204396,0.5632887000683695,0,0.4767221000511199,0.6623676000162959,,,55.0,58.0,33473,61.0,
-152,-152,45,9,0,144,14,,,,,,,,,,,session,1944.9812748999102,128.0,2.0,73.0,0.020083591432026197,3,1.296463800012134,1.4771639000391588,7,0.8199546000687405,1.03581250004936,1,1.0980827999301255,1.131489499937743,,,58.0,64.0,33473,61.0,
152,-152,45,9,1,145,10,,,,,,,,,,,session,1954.3518159999512,152.0,2.0,73.0,0.020083591432026197,5,0.9340933000203222,1.064524699933827,1,1.3296760000521317,1.4666191999567673,0,1.197887200047262,1.348443299997598,,,61.0,49.0,33473,61.0,
152,-152,90,9,2,146,11,,,,,,,,,,,session,1964.2772258999757,171.0,2.0,73.0,0.020083591432026197,5,0.8798350999131799,1.0607785999309272,0,0.3527590000303462,0.5463682999834418,0,0.3533283999422565,0.5312319999793544,,,49.0,70.0,33473,61.0,
152,152,0,9,3,147,1,,,,,,,,,,,session,1972.9671679999446,159.0,2.0,73.0,0.020083591432026197,2,2.0808078000554815,2.144564700080082,1,2.1612022999906912,2.1959837999893352,0,0.5709312000544742,0.7376816000323743,,,67.0,64.0,33473,61.0,
152,152,90,9,4,148,3,,,,,,,,,,,session,1984.60912249994,152.0,2.0,73.0,0.020083591432026197,4,2.7577155000763014,2.955661499989219,7,0.37749350001104176,0.5384051000000909,0,0.44967879995238036,0.6829762998968363,,,73.0,49.0,33473,61.0,
-152,152,90,9,5,149,7,,,,,,,,,,,session,1995.0503017999,146.0,2.0,73.0,0.020083591432026197,5,0.7803823000285774,0.9795607000123709,1,1.004952699993737,1.186371799907647,0,0.7184132999973372,1.0388639000011608,,,49.0,64.0,33473,61.0,
-152,-152,0,9,6,150,13,,,,,,,,,,,session,2004.2753345000092,152.0,2.0,73.0,0.020083591432026197,3,0.8601558998925611,1.0787561999168247,0,1.629486299934797,1.8619977999478579,0,0.6796422000043094,1.2495315000414848,,,55.0,58.0,33473,61.0,
152,152,-45,9,7,151,0,,,,,,,,,,,session,2014.5335925999098,128.0,2.0,73.0,0.020083591432026197,4,1.2131432000314817,1.4845166000304744,6,0.3715088999597356,0.4882357999449596,0,0.5505980999441817,0.7943652999820188,,,67.0,55.0,33473,61.0,
-152,-152,-45,9,8,152,12,,,,,,,,,,,session,2023.1543127999175,140.0,2.0,73.0,0.020083591432026197,2,2.0098687999416143,2.2266268000239506,1,0.3962794999824837,0.5542283999966457,0,0.33674139995127916,0.5061217999318615,,,73.0,55.0,33473,61.0,
-152,152,0,9,9,153,5,,,,,,,,,,,session,2032.629421499907,140.0,2.0,73.0,0.020083591432026197,2,0.833981900010258,0.9470649000722915,7,0.37402920005843043,0.6068057999946177,0,0.26157400000374764,0.4779454000527039,,,70.0,70.0,33473,61.0,
152,-152,0,9,10,154,9,,,,,,,,,,,session,2040.917858999921,152.0,2.0,73.0,0.020083591432026197,3,0.9697979999473318,1.1866631999146193,6,0.3451451000291854,0.5115136000094935,0,1.1416609999723732,1.3748896999750286,,,52.0,61.0,33473,61.0,
-152,-152,90,9,11,155,15,,,,,,,,,,,session,2050.1259008999914,171.0,2.0,73.0,0.020083591432026197,4,1.0921383999520913,1.3596277999458835,0,1.7069339000154287,1.9410967000294477,0,0.6960819999221712,0.8961771999020129,,,58.0,67.0,33473,61.0,
-152,152,-45,9,12,156,4,,,,,,,,,,,session,2061.017402999918,171.0,2.0,73.0,0.020083591432026197,4,1.06407990003936,1.296445499989204,6,0.35669919999781996,0.5006496000569314,0,0.7964034000178799,1.0418368000537157,,,64.0,64.0,33473,61.0,
-152,152,45,9,13,157,6,,,,,,,,,,,session,2070.438849799917,140.0,2.0,73.0,0.020083591432026197,3,0.7608074999880046,0.9630107999546453,1,2.3060707999393344,2.3746722999494523,0,0.6839230000041425,0.8622812000103295,,,58.0,67.0,33473,61.0,
152,152,45,9,14,158,2,,,,,,,,,,,session,2080.7611067999387,128.0,2.0,73.0,0.020083591432026197,5,1.3228001999668777,1.4711145999608561,7,0.5393452000571415,0.7564929999643937,0,0.6985375999938697,0.9732939000241458,,,55.0,49.0,33473,61.0,
152,-152,-45,9,15,159,8,,,,,,,,,,,session,2089.545055399998,159.0,2.0,73.0,0.020083591432026197,5,0.9652625999879092,1.135110400035046,6,1.9227129999781027,2.143709799973294,0,0.9400771000655368,1.2177541999844834,,,55.0,73.0,33473,61.0,
152,-152,-45,9,15,159,8,,,materials/instructions\12_break.png,2100.534975699964,2117.1889394999016,0,16.52039170009084,16.65197640005499,0.010433699935674667,16.65967660001479,,,,,,,,,,,,,,,,,,,,33473,61.0,
152,-152,0,10,0,160,9,,,,,,,,,,,session,2117.205003399984,171.0,2.0,73.0,0.020083591432026197,5,0.7718562999507412,0.9057263999711722,6,0.34026820003055036,0.42399360006675124,0,0.6037116999505088,0.8086679000407457,,,58.0,73.0,33473,61.0,
152,152,0,10,1,161,1,,,,,,,,,,,session,2126.0384297999553,134.0,2.0,73.0,0.020083591432026197,4,1.2353842998854816,1.3986948999809101,0,0.44736979994922876,0.6476679999614134,0,0.4730819999240339,0.6398622000124305,,,73.0,61.0,33473,61.0,
-152,152,90,10,2,162,7,,,,,,,,,,,session,2134.840619799914,146.0,2.0,73.0,0.020083591432026197,2,0.6594579999800771,0.860173299908638,7,0.37326370005030185,0.5188326000934467,0,0.4745516999391839,0.7078833999112248,,,70.0,58.0,33473,61.0,
-152,152,-45,10,3,163,4,,,,,,,,,,,session,2143.2144516999833,177.0,2.0,73.0,0.020083591432026197,3,1.2307500999886543,1.4110193999949843,1,1.4116114999633282,1.486333700013347,0,0.5673171000089496,0.802064299932681,,,55.0,70.0,33473,61.0,
152,-152,45,10,4,164,10,,,,,,,,,,,session,2153.5062739999266,128.0,2.0,73.0,0.020083591432026197,4,0.5275444999570027,0.6966624999186024,7,0.9812045999569818,1.078913899953477,1,1.8656241999706253,1.968989699962549,,,73.0,55.0,33473,61.0,
-152,-152,45,10,5,165,14,,,,,,,,,,,session,2163.265660199919,183.0,2.0,73.0,0.020083591432026197,3,1.3781293999636546,1.6623134000692517,6,0.44526730000507087,0.5572271000128239,0,0.6298014000058174,0.8464856999926269,,,73.0,49.0,33473,61.0,
-152,-152,0,10,6,166,13,,,,,,,,,,,session,2173.0196335999062,152.0,2.0,73.0,0.020083591432026197,2,1.3385590000543743,1.4533479999518022,1,1.724853300023824,1.898602900095284,0,0.6605068000499159,0.86178890010342,,,73.0,49.0,33473,61.0,
152,152,-45,10,7,167,0,,,,,,,,,,,session,2183.562388899969,152.0,2.0,73.0,0.020083591432026197,5,0.9309393999865279,1.1626398999942467,0,0.46510009991470724,0.7313458999851719,0,0.6135088999290019,0.8137099000159651,,,64.0,52.0,33473,61.0,
-152,152,45,10,8,168,6,,,,,,,,,,,session,2192.2852719000075,177.0,2.0,73.0,0.020083591432026197,3,0.4746734000509605,0.7079682999756187,6,0.525717300013639,0.6784213000210002,0,0.5354266999056563,0.7670259999576956,,,49.0,67.0,33473,61.0,
152,-152,-45,10,9,169,8,,,,,,,,,,,session,2201.0540186999133,128.0,2.0,73.0,0.020083591432026197,4,0.45795940002426505,0.6915433000540361,1,0.6487611000193283,0.8151909000007436,0,0.32987229991704226,0.5010258000111207,,,55.0,67.0,33473,61.0,
-152,-152,-45,10,10,170,12,,,,,,,,,,,session,2208.9838577999035,152.0,2.0,73.0,0.020083591432026197,3,0.756077800062485,0.9390243000816554,7,0.4706930998945609,0.6874799999641255,0,0.5617551999166608,0.7487843999406323,,,64.0,55.0,33473,61.0,
-152,152,0,10,11,171,5,,,,,,,,,,,session,2217.5411391999805,128.0,2.0,73.0,0.020083591432026197,3,0.7311629999894649,0.9316342000383884,6,0.34500879992265254,0.44424029998481274,0,0.7146059999940917,0.9312805999070406,,,73.0,70.0,33473,61.0,
152,152,45,10,12,172,2,,,,,,,,,,,session,2225.960155799985,140.0,2.0,73.0,0.020083591432026197,4,0.6779736999887973,0.9281187999295071,0,0.6797659000148997,1.0637594000436366,1,0.6557487000245601,0.7557859999360517,,,73.0,70.0,33473,61.0,
-152,-152,90,10,13,173,15,,,,,,,,,,,session,2235.083856299985,183.0,2.0,73.0,0.020083591432026197,3,0.3658710999879986,0.5502331999596208,6,0.6364444999489933,0.8051842999411747,1,0.41401830001268536,0.526962099946104,,,70.0,64.0,33473,61.0,
152,152,90,10,14,174,3,,,,,,,,,,,session,2243.950375699904,177.0,2.0,73.0,0.020083591432026197,2,1.2294503999873996,1.4463498999830335,0,1.8831124000716954,2.313104600063525,0,0.8779080000240356,1.144597800099291,,,61.0,52.0,33473,61.0,
152,-152,90,10,15,175,11,,,,,,,,,,,session,2255.415695999982,128.0,2.0,73.0,0.020083591432026197,3,0.7207316999556497,0.8983961999183521,7,2.174366099992767,2.378099299967289,0,0.6156705999746919,0.8966601999709383,,,64.0,64.0,33473,61.0,
-152,-152,-45,11,0,176,12,,,,,,,,,,,session,2265.4922397999326,177.0,2.0,73.0,0.020083591432026197,5,0.8796872000675648,1.017958200071007,6,0.3140554999699816,0.4452756999526173,0,0.6956787999952212,0.9787471999879926,,,55.0,64.0,33473,61.0,
152,152,-45,11,1,177,0,,,,,,,,,,,session,2274.6286488999613,134.0,2.0,73.0,0.020083591432026197,4,0.7306060999399051,0.8637362999143079,1,0.3450225000269711,0.4784543999703601,0,0.7847947000991553,0.9396107000065967,,,64.0,58.0,33473,61.0,
-152,152,90,11,2,178,7,,,,,,,,,,,session,2282.7412777999416,146.0,2.0,73.0,0.020083591432026197,2,1.023036300088279,1.1048641999950632,7,0.33397310005966574,0.4790447000414133,0,0.32450350001454353,0.4915811999235302,,,64.0,67.0,33473,61.0,
152,152,45,11,3,179,2,,,,,,,,,,,session,2291.1773343000095,128.0,2.0,73.0,0.020083591432026197,3,1.3287815999938175,1.5689853000221774,1,1.6364675998920575,1.741302999900654,0,1.2902767000487074,1.3903031999943778,,,49.0,67.0,33473,61.0,
152,152,45,11,3,179,2,,,materials/instructions\12_break.png,2301.6294254999375,2320.4940256999107,0,18.61476779996883,18.86267099995166,0.018768099951557815,18.870366999995895,,,,,,,,,,,,,,,,,,,,33473,61.0,
-152,152,0,11,4,180,5,,,,,,,,,,,session,2320.510237199953,159.0,2.0,73.0,0.020083591432026197,4,1.1579047000268474,1.357632500003092,1,0.3460262001026422,0.56375030009076,0,0.37339079997036606,0.6231805999996141,,,49.0,73.0,33473,61.0,
-152,-152,45,11,5,181,14,,,,,,,,,,,session,2329.35990749998,159.0,2.0,73.0,0.020083591432026197,5,0.7708114000270143,0.8553260000189766,7,0.36077180004213005,0.46782699995674193,0,0.44575569999869913,0.564207199960947,,,70.0,70.0,33473,61.0,
-152,152,45,11,6,182,6,,,,,,,,,,,session,2337.962942999904,183.0,2.0,73.0,0.020083591432026197,5,2.1252970999339595,2.289762799977325,6,2.061761200078763,2.2154661000240594,0,1.3602532999357209,1.6190210999920964,,,73.0,61.0,33473,61.0,
152,-152,0,11,7,183,9,,,,,,,,,,,session,2350.91219599999,152.0,2.0,73.0,0.020083591432026197,3,1.1248308999929577,1.3586832999717444,7,1.1426929000299424,1.2098548000212759,0,0.4104034999618307,0.5974719999358058,,,64.0,67.0,33473,61.0,
-152,-152,0,11,8,184,13,,,,,,,,,,,session,2360.5808905999875,159.0,2.0,73.0,0.020083591432026197,5,1.2789978999644518,1.3289770999690518,0,0.3555167999584228,0.5064545999048278,1,2.182256200001575,2.265949000022374,,,64.0,73.0,33473,61.0,
-152,152,-45,11,9,185,4,,,,,,,,,,,session,2371.1711277998984,140.0,2.0,73.0,0.020083591432026197,2,0.4428533000173047,0.6794317000312731,1,1.0139673999510705,1.1640153999906033,1,0.6674822999630123,0.7874647999415174,,,64.0,64.0,33473,61.0,
152,-152,-45,11,10,186,8,,,,,,,,,,,session,2380.014497999917,159.0,2.0,73.0,0.020083591432026197,5,1.006158700096421,1.067894900101237,7,0.988388100056909,1.0868382999906316,0,0.6367285000160336,0.8698445000918582,,,61.0,64.0,33473,61.0,
152,-152,45,11,11,187,10,,,,,,,,,,,session,2389.36712239997,128.0,2.0,73.0,0.020083591432026197,3,0.7542327999835834,0.9677413000026718,6,0.4305117999901995,0.47843799996189773,0,0.32812169997487217,0.42649310000706464,,,64.0,67.0,33473,61.0,
-152,-152,90,11,12,188,15,,,,,,,,,,,session,2397.307183799916,159.0,2.0,73.0,0.020083591432026197,3,1.302795200026594,1.414076799992472,0,0.6134031000547111,0.726656400016509,0,1.2549493999686092,1.4077055999077857,,,49.0,61.0,33473,61.0,
152,152,90,11,13,189,3,,,,,,,,,,,session,2407.050419499981,183.0,2.0,73.0,0.020083591432026197,3,0.5449224000331014,0.8117795999860391,7,0.4957187999971211,0.6965895000612363,0,0.4266377999447286,0.7773187999846414,,,52.0,58.0,33473,61.0,
152,152,0,11,14,190,1,,,,,,,,,,,session,2415.9373870999552,140.0,2.0,73.0,0.020083591432026197,5,0.7797903000609949,0.8303919000318274,1,0.42597759992349893,0.4913775000022724,0,1.7103964999550954,1.876192199997604,,,58.0,52.0,33473,61.0,
152,-152,90,11,15,191,11,,,,,,,,,,,session,2424.9083569999784,165.0,2.0,73.0,0.020083591432026197,3,0.9615696000400931,1.1763810999691486,0,0.5030861999839544,0.6630163999507204,0,0.2131359000923112,0.4466283000074327,,,49.0,64.0,33473,61.0,
-152,-152,0,12,0,192,13,,,,,,,,,,,session,2433.3504879999673,171.0,2.0,73.0,0.020083591432026197,5,1.2764418999431655,1.366366699920036,6,0.6475248000351712,0.7642316999845207,0,0.45105329994112253,0.6837363999802619,,,64.0,67.0,33473,61.0,
-152,-152,90,12,1,193,15,,,,,,,,,,,session,2442.9768111999147,171.0,2.0,73.0,0.020083591432026197,4,1.3318681999808177,1.5648959999671206,7,0.4123315999750048,0.6124535999260843,1,1.1206911999033764,1.3543542999541387,,,64.0,67.0,33473,61.0,
152,-152,45,12,2,194,10,,,,,,,,,,,session,2453.3338182999287,177.0,2.0,73.0,0.020083591432026197,5,1.147504199994728,1.3368324999464676,1,0.7181164000649005,0.895131399971433,0,0.6282201999565586,0.8585248999297619,,,70.0,55.0,33473,61.0,
-152,152,90,12,3,195,7,,,,,,,,,,,session,2463.124497099896,146.0,2.0,73.0,0.020083591432026197,2,0.7106536000501364,0.8769350000657141,0,0.4018188000191003,0.5300375000806525,0,0.1267357999458909,0.28217119991313666,,,64.0,61.0,33473,61.0,
152,152,45,12,4,196,2,,,,,,,,,,,session,2471.052788799978,128.0,2.0,73.0,0.020083591432026197,4,0.9729562998982146,1.2034956999123096,7,0.3626214999239892,0.6425067000091076,0,0.49795679992530495,0.681519899982959,,,49.0,52.0,33473,61.0,
-152,-152,45,12,5,197,14,,,,,,,,,,,session,2479.036974299932,140.0,2.0,73.0,0.020083591432026197,4,1.4035593000007793,1.6309362000320107,1,0.5392888000933453,0.6591273000231013,0,0.4426812999881804,0.7079432000173256,,,49.0,52.0,33473,61.0,
152,152,-45,12,6,198,0,,,,,,,,,,,session,2487.7441070999485,159.0,2.0,73.0,0.020083591432026197,5,0.9952846000669524,1.2626105000963435,6,0.011914200033061206,0.01386619999539107,0,0.011164600029587746,0.013051499961875379,,,64.0,70.0,33473,61.0,
152,-152,90,12,7,199,11,,,,,,,,,,,session,2495.5439020999474,177.0,2.0,73.0,0.020083591432026197,3,0.9365415000356734,1.11486790003255,7,0.3961760000092909,0.5564709999598563,0,0.5862260999856517,0.7706097000045702,,,61.0,58.0,33473,61.0,
152,-152,90,12,7,199,11,,,materials/instructions\12_break.png,2504.6732866999228,2524.1869164999807,0,19.39021859993227,19.51183770003263,0.013297699973918498,19.517824899987318,,,,,,,,,,,,,,,,,,,,33473,61.0,
152,152,0,12,8,200,1,,,,,,,,,,,session,2524.2014442000072,134.0,2.0,73.0,0.020083591432026197,5,1.338186000008136,1.4595048000337556,7,0.011630799970589578,0.08587069995701313,0,0.41673469997476786,0.6997179999016225,,,64.0,49.0,33473,61.0,
-152,152,45,12,9,201,6,,,,,,,,,,,session,2532.3288036999293,146.0,2.0,73.0,0.020083591432026197,3,0.29911579994950444,0.5326086999848485,0,0.3154791999841109,0.5323188999900594,1,0.9313197999726981,1.0162659999914467,,,55.0,52.0,33473,61.0,
-152,-152,-45,12,10,202,12,,,,,,,,,,,session,2540.2005813999567,146.0,2.0,73.0,0.020083591432026197,4,1.0484176999889314,1.1899020000128075,6,0.6002773999935016,0.7060461000073701,0,0.4254747999366373,0.5435610000276938,,,64.0,58.0,33473,61.0,
152,-152,0,12,11,203,9,,,,,,,,,,,session,2548.723529299954,159.0,2.0,73.0,0.020083591432026197,4,0.7981613000156358,0.8624460999853909,7,1.5664887999882922,1.7980484999716282,1,0.32071819994598627,0.4515504000009969,,,52.0,61.0,33473,61.0,
-152,152,-45,12,12,204,4,,,,,,,,,,,session,2557.97908859991,152.0,2.0,73.0,0.020083591432026197,2,1.0963860000483692,1.2140496000647545,0,0.3455227999947965,0.5455057000508532,0,1.430460499948822,1.5305388999404386,,,67.0,64.0,33473,61.0,
152,-152,-45,12,13,205,8,,,,,,,,,,,session,2567.620522199897,146.0,2.0,73.0,0.020083591432026197,4,1.4500208999961615,1.5703466000268236,1,0.8343364999163896,1.0499242999358103,0,0.44764419994316995,0.6123962999554351,,,67.0,67.0,33473,61.0,
-152,152,0,12,14,206,5,,,,,,,,,,,session,2577.2084459000034,152.0,2.0,73.0,0.020083591432026197,4,1.0521247000433505,1.2043289000866935,7,0.5460303999716416,0.6637170000467449,0,0.5164186999900267,0.6373351999791339,,,52.0,58.0,33473,61.0,
152,152,90,12,15,207,3,,,,,,,,,,,session,2585.5845591999823,140.0,2.0,73.0,0.020083591432026197,5,0.9924182000104338,1.093470299965702,6,0.3089750000508502,0.4459306000499055,0,0.011431799968704581,0.0651864999672398,,,70.0,61.0,33473,61.0,
-152,152,45,13,0,208,6,,,,,,,,,,,session,2593.4510974999284,177.0,2.0,73.0,0.020083591432026197,2,0.6784772999817505,0.8644334999844432,7,0.9337091000052169,1.0464894000906497,1,1.13350450003054,1.4339153999462724,,,70.0,64.0,33473,61.0,
-152,152,0,13,1,209,5,,,,,,,,,,,session,2603.58215859998,165.0,2.0,73.0,0.020083591432026197,3,1.6876289000501856,1.8714546000119299,6,0.4084666999988258,0.5253712000558153,0,0.799505400005728,1.3366066999733448,,,52.0,58.0,33473,61.0,
152,-152,-45,13,2,210,8,,,,,,,,,,,session,2613.5589492999716,171.0,2.0,73.0,0.020083591432026197,4,0.61268649995327,0.7986337000038475,1,0.4261490000644699,0.5608084000414237,1,0.2938837999245152,0.41129540000110865,,,49.0,67.0,33473,61.0,
152,-152,45,13,3,211,10,,,,,,,,,,,session,2621.8121812999016,128.0,2.0,73.0,0.020083591432026197,3,1.137331199948676,1.354164799908176,0,0.4084982000058517,0.5759394000051543,0,0.011151300044730306,0.013000800041481853,,,49.0,73.0,33473,61.0,
152,-152,90,13,4,212,11,,,,,,,,,,,session,2629.5264715999365,140.0,2.0,73.0,0.020083591432026197,2,1.0435671999584883,1.1736348000122234,1,0.3996262999717146,0.5038489999715239,1,0.7707207000348717,0.9356048000045121,,,64.0,73.0,33473,61.0,
-152,-152,-45,13,5,213,12,,,,,,,,,,,session,2638.4551130000036,128.0,2.0,73.0,0.020083591432026197,3,0.9160486999899149,1.1133787999860942,6,0.44825179991312325,0.6154016999062151,0,0.6305843000300229,0.8787007000064477,,,55.0,55.0,33473,61.0,
-152,152,90,13,6,214,7,,,,,,,,,,,session,2646.6281103999354,159.0,2.0,73.0,0.020083591432026197,5,0.9560163000132889,1.0472058000741526,7,0.20960250007919967,0.36279110005125403,0,0.2774280000012368,0.41001250001136214,,,67.0,55.0,33473,61.0,
-152,-152,90,13,7,215,15,,,,,,,,,,,session,2654.8680393999675,159.0,2.0,73.0,0.020083591432026197,5,0.6444999000523239,1.0110400000121444,6,0.7317774998955429,0.8483814999926835,0,0.8920352000277489,1.0801194999366999,,,58.0,67.0,33473,61.0,
152,152,-45,13,8,216,0,,,,,,,,,,,session,2664.177889399929,152.0,2.0,73.0,0.020083591432026197,3,0.6821969000156969,0.8987827999517322,1,0.39860249997582287,0.521673500072211,0,0.7592315999791026,0.8948059999383986,,,55.0,64.0,33473,61.0,
-152,-152,45,13,9,217,14,,,,,,,,,,,session,2672.5016826000065,146.0,2.0,73.0,0.020083591432026197,3,0.691227599978447,0.8876600000075996,7,0.46426399995107204,0.48580289992969483,0,0.42421420000027865,0.5705047999508679,,,67.0,67.0,33473,61.0,
152,152,90,13,10,218,3,,,,,,,,,,,session,2680.9236366999103,140.0,2.0,73.0,0.020083591432026197,5,0.8397683999501169,0.9540765000274405,0,0.26512179989367723,0.38187249994371086,0,0.32931469997856766,0.4294733999995515,,,52.0,64.0,33473,61.0,
-152,-152,0,13,11,219,13,,,,,,,,,,,session,2688.512002400006,159.0,2.0,73.0,0.020083591432026197,4,0.9419045000104234,1.1420959000242874,6,0.3659629999892786,0.5663391000125557,0,0.4208102999255061,0.5373598999576643,,,70.0,52.0,33473,61.0,
-152,-152,0,13,11,219,13,,,materials/instructions\12_break.png,2697.049828399904,2709.557381499908,0,12.338803500053473,12.5055581999477,0.01653790008276701,12.513125800061971,,,,,,,,,,,,,,,,,,,,33473,61.0,
152,152,0,13,12,220,1,,,,,,,,,,,session,2709.5736652999185,146.0,2.0,73.0,0.020083591432026197,2,1.0574653000803664,1.1462297000689432,1,0.44830789999105036,0.5317315000575036,0,0.25904500007163733,0.4258289000717923,,,70.0,61.0,33473,61.0,
152,-152,0,13,13,221,9,,,,,,,,,,,session,2717.9161267000018,128.0,2.0,73.0,0.020083591432026197,4,0.40760130004491657,0.5910441000014544,1,0.42846470000222325,0.5504735000431538,1,0.30659369996283203,0.38997609994839877,,,67.0,64.0,33473,61.0,
152,152,45,13,14,222,2,,,,,,,,,,,session,2725.5067622999195,183.0,2.0,73.0,0.020083591432026197,2,0.9196520999539644,0.9860243999864906,7,0.4095477999653667,0.49651450000237674,0,0.3247790999012068,0.4112210999010131,,,52.0,52.0,33473,61.0,
-152,152,-45,13,15,223,4,,,,,,,,,,,session,2733.8307938999496,134.0,2.0,73.0,0.020083591432026197,5,1.523884000023827,1.605004100012593,6,0.07581870001740754,0.12772089999634773,0,0.011326299980282784,0.01322920003440231,,,64.0,64.0,33473,61.0,
-152,-152,-45,14,0,224,12,,,,,,,,,,,session,2741.652745199972,146.0,2.0,73.0,0.020083591432026197,2,1.2628842999693006,1.3128938999725506,6,1.1508931000716984,1.266325700096786,0,0.1949106000829488,0.35833900002762675,,,73.0,64.0,33473,61.0,
152,152,0,14,1,225,1,,,,,,,,,,,session,2750.942153199925,152.0,2.0,73.0,0.020083591432026197,3,1.2668870000634342,1.4169410000322387,1,0.4111937000416219,0.5092761000851169,0,0.7736915999557823,0.9227653000270948,,,55.0,58.0,33473,61.0,
152,-152,45,14,2,226,10,,,,,,,,,,,session,2759.716480599949,183.0,2.0,73.0,0.020083591432026197,4,0.984782800078392,1.1502962000668049,7,0.37769209989346564,0.594388399971649,0,0.3149703999515623,0.6213274999754503,,,67.0,64.0,33473,61.0,
-152,152,90,14,3,227,7,,,,,,,,,,,session,2769.062644199934,152.0,2.0,73.0,0.020083591432026197,2,1.1975664000492543,1.245273599983193,6,0.7070801999652758,0.7713784999214113,0,0.9783073998987675,1.0783875999040902,,,67.0,61.0,33473,61.0,
152,-152,-45,14,4,228,8,,,,,,,,,,,session,2778.5140149999643,134.0,2.0,73.0,0.020083591432026197,2,0.6773448000894859,0.7661768000107259,0,0.43628839997109026,0.5863034999929368,0,0.294294000021182,0.41553310002200305,,,58.0,73.0,33473,61.0,
152,152,-45,14,5,229,0,,,,,,,,,,,session,2786.4077652998967,171.0,2.0,73.0,0.020083591432026197,2,0.6633191999280825,0.7692134999670088,7,0.6839310999494046,0.7545447000302374,0,0.8297389999497682,0.9963549999520183,,,70.0,73.0,33473,61.0,
-152,-152,45,14,6,230,14,,,,,,,,,,,session,2795.878227799898,140.0,2.0,73.0,0.020083591432026197,3,0.37908759992569685,0.5669793999986723,1,0.6604550000047311,0.7269007000140846,0,0.6332460000412539,0.7359623999800533,,,61.0,67.0,33473,61.0,
152,152,90,14,7,231,3,,,,,,,,,,,session,2803.973392599961,128.0,2.0,73.0,0.020083591432026197,5,0.7792161999968812,0.8444249000167474,6,0.3791169000323862,0.44583580002654344,0,0.36867050000000745,0.48618770006578416,,,73.0,67.0,33473,61.0,
152,-152,0,14,8,232,9,,,,,,,,,,,session,2811.857030199957,152.0,2.0,73.0,0.020083591432026197,4,0.9280999000184238,1.1136504000751302,1,1.1737475000554696,1.271219199988991,0,0.1274984999326989,0.24694280000403523,,,52.0,73.0,33473,61.0,
-152,-152,0,14,9,233,13,,,,,,,,,,,session,2820.614751999965,128.0,2.0,73.0,0.020083591432026197,3,1.1994373999768868,1.5119901000289246,7,0.5132262000115588,0.5987325999885798,0,0.6644878999795765,0.832533499924466,,,64.0,67.0,33473,61.0,
-152,152,-45,14,10,234,4,,,,,,,,,,,session,2829.555294999969,159.0,2.0,73.0,0.020083591432026197,2,0.9525042000459507,1.050582900061272,1,0.5709879000205547,0.6502389000961557,0,1.1892801000503823,1.276324599981308,,,67.0,70.0,33473,61.0,
152,152,45,14,11,235,2,,,,,,,,,,,session,2839.0986300999066,146.0,2.0,73.0,0.020083591432026197,5,0.8880230999784544,1.007331799948588,0,0.5729562999913469,0.8901190999895334,0,0.4891599001130089,0.5863020000979304,,,67.0,73.0,33473,61.0,
152,-152,90,14,12,236,11,,,,,,,,,,,session,2848.0148770000087,171.0,2.0,73.0,0.020083591432026197,4,0.6070824000053108,0.7516010999679565,6,0.413038200000301,0.5296206000493839,0,0.37923780002165586,0.5832653000252321,,,64.0,64.0,33473,61.0,
-152,-152,90,14,13,237,15,,,,,,,,,,,session,2856.5762128999922,140.0,2.0,73.0,0.020083591432026197,2,0.7829334000125527,0.8324872000375763,1,0.5266978999134153,0.6647103999275714,0,0.33647079998627305,0.386557099991478,,,55.0,61.0,33473,61.0,
-152,152,0,14,14,238,5,,,,,,,,,,,session,2864.3981012000004,159.0,2.0,73.0,0.020083591432026197,3,0.795230699935928,0.906436099903658,7,0.30245950003154576,0.37795330001972616,0,0.2780164999421686,0.42811300000175834,,,64.0,49.0,33473,61.0,
-152,152,45,14,15,239,6,,,,,,,,,,,session,2872.384436199907,165.0,2.0,73.0,0.020083591432026197,2,0.6650304000359029,0.7853205000283197,6,0.3281175000593066,0.467725400114432,1,0.6271466999314725,0.7773339999839664,,,49.0,70.0,33473,61.0,
-152,152,45,14,15,239,6,,,materials/instructions\12_break.png,2880.8913011999102,2894.61649559997,0,13.594181600026786,13.723155800020322,0.01564560004044324,13.729542399989441,,,,,,,,,,,,,,,,,,,,33473,61.0,
152,-152,0,15,0,240,9,,,,,,,,,,,session,2894.631293299957,134.0,2.0,73.0,0.020083591432026197,4,0.9611545999068767,1.1061360000167042,7,0.5287562999874353,0.6014309999300167,0,0.011073099914938211,0.013026100001297891,,,55.0,70.0,33473,61.0,
-152,-152,0,15,1,241,13,,,,,,,,,,,session,2902.4227848999435,140.0,2.0,73.0,0.020083591432026197,2,1.3723750000353903,1.4711972000077367,6,0.41038999997545034,0.45541970001067966,0,1.047788199968636,1.1477223999099806,,,67.0,67.0,33473,61.0,
152,152,0,15,2,242,1,,,,,,,,,,,session,2911.5998980998993,134.0,2.0,73.0,0.020083591432026197,5,0.7625760000664741,0.8618707000277936,0,0.22119389998260885,0.2877724999561906,0,0.011157400091178715,0.013043800019659102,,,67.0,61.0,33473,61.0,
-152,-152,90,15,3,243,15,,,,,,,,,,,session,2918.803623499931,171.0,2.0,73.0,0.020083591432026197,2,0.9786937999306247,1.0449029000010341,6,0.46095959993544966,0.5643247999250889,0,0.1906324999872595,0.3175932999001816,,,52.0,70.0,33473,61.0,
152,152,90,15,4,244,3,,,,,,,,,,,session,2927.342062199954,140.0,2.0,73.0,0.020083591432026197,4,0.4286062999162823,0.6137280999682844,1,0.10863390006124973,0.31182600010652095,0,0.011054800008423626,0.01295530004426837,,,70.0,52.0,33473,61.0,
-152,152,45,15,5,245,6,,,,,,,,,,,session,2934.299708299921,177.0,2.0,73.0,0.020083591432026197,3,1.0934315000195056,1.2769552000099793,7,0.3256010999903083,0.41221280000172555,0,0.7707495000213385,0.923385199974291,,,58.0,49.0,33473,61.0,
-152,-152,45,15,6,246,14,,,,,,,,,,,session,2943.29245129996,152.0,2.0,73.0,0.020083591432026197,2,2.5593616999685764,2.6494097999529913,1,0.29751679999753833,0.547471099998802,0,0.6277136999415234,0.8051327000139281,,,64.0,73.0,33473,61.0,
-152,152,90,15,7,247,7,,,,,,,,,,,session,2953.747559799929,128.0,2.0,73.0,0.020083591432026197,4,0.9604543000459671,1.110525400028564,6,0.4018513999180868,0.5639996000099927,0,1.2052881000563502,1.3221574999624863,,,70.0,73.0,33473,61.0,
152,-152,45,15,8,248,10,,,,,,,,,,,session,2962.9221942999866,146.0,2.0,73.0,0.020083591432026197,3,1.2288207000819966,1.5596391999861225,7,0.31333249993622303,0.413708999985829,0,0.19293610006570816,0.42669009999372065,,,52.0,73.0,33473,61.0,
-152,152,-45,15,9,249,4,,,,,,,,,,,session,2971.525787599967,140.0,2.0,73.0,0.020083591432026197,2,1.026535600074567,1.1437598000047728,1,0.7994943000376225,0.8830459000309929,0,0.32943889999296516,0.449080599937588,,,73.0,61.0,33473,61.0,
152,-152,90,15,10,250,11,,,,,,,,,,,session,2980.27248699998,152.0,2.0,73.0,0.020083591432026197,4,1.016958500025794,1.1707401999738067,6,0.31763079995289445,0.44484789995476604,0,0.2658678999869153,0.4277352999197319,,,52.0,55.0,33473,61.0,
152,-152,-45,15,11,251,8,,,,,,,,,,,session,2988.29144619999,177.0,2.0,73.0,0.020083591432026197,2,0.8982565000187606,1.0093101999955252,0,0.7938297999789938,0.9753433999139816,0,0.39493579999543726,0.6106996999587864,,,49.0,49.0,33473,61.0,
152,152,45,15,12,252,2,,,,,,,,,,,session,2997.0632892999565,146.0,2.0,73.0,0.020083591432026197,5,1.391104800044559,1.4771429999964312,7,0.8289830998983234,0.8746746999677271,0,0.3960547000169754,0.4832285000011325,,,55.0,58.0,33473,61.0,
-152,-152,-45,15,13,253,12,,,,,,,,,,,session,3005.9754170000087,146.0,2.0,73.0,0.020083591432026197,3,0.6941243999172002,0.8419762999983504,6,1.281698799924925,1.3481216999934986,0,0.3601741000311449,0.5605904000112787,,,52.0,61.0,33473,61.0,
-152,152,0,15,14,254,5,,,,,,,,,,,session,3014.7419615999097,177.0,2.0,73.0,0.020083591432026197,2,0.613966399920173,0.686662600026466,6,0.829666499979794,0.8979713000589982,0,0.72648269997444,0.8154695999110118,,,73.0,58.0,33473,61.0,
152,152,-45,15,15,255,0,,,,,,,,,,,session,3024.00226009998,128.0,2.0,73.0,0.020083591432026197,5,0.8648141999728978,0.9137396999867633,7,0.7286830000812188,0.8130526000168175,1,0.40045920002739877,0.4670505999820307,,,58.0,52.0,33473,61.0,
-152,152,-45,16,0,256,4,,,,,,,,,,,session,3031.661693700007,134.0,2.0,73.0,0.020083591432026197,4,0.9173197000054643,1.1173023999435827,0,0.14813210000284016,0.27968449995387346,0,0.011426500044763088,0.0133283999748528,,,73.0,61.0,33473,61.0,
-152,-152,45,16,1,257,14,,,,,,,,,,,session,3039.0456960999873,183.0,2.0,73.0,0.020083591432026197,3,0.3950090000871569,0.5743121000705287,7,0.7451880999142304,0.8945436999201775,1,0.012181099969893694,0.10345129994675517,,,58.0,70.0,33473,61.0,
152,152,-45,16,2,258,0,,,,,,,,,,,session,3047.515605499968,165.0,2.0,73.0,0.020083591432026197,3,0.8031447000103071,1.0536023000022396,6,1.1422929000109434,1.2117008999921381,0,1.1291471999138594,1.2112554999766871,,,52.0,58.0,33473,61.0,
152,-152,-45,16,3,259,8,,,,,,,,,,,session,3057.2758506999817,165.0,2.0,73.0,0.020083591432026197,4,0.6325167999602854,0.8014941000146791,7,0.5352176000596955,0.5779439000179991,0,0.7001971999416128,0.833783800015226,,,67.0,55.0,33473,61.0,
152,-152,-45,16,3,259,8,,,materials/instructions\12_break.png,3065.8984215999953,3076.172351899906,0,10.03897340002004,10.271574100013822,0.01598670007660985,10.277348099974915,,,,,,,,,,,,,,,,,,,,33473,61.0,
-152,-152,90,16,4,260,15,,,,,,,,,,,session,3076.1863763999427,177.0,2.0,73.0,0.020083591432026197,2,0.5070858000544831,0.6427899000700563,1,0.32807559997309,0.41176659998018295,0,0.011079699965193868,0.012978199985809624,,,58.0,55.0,33473,61.0,
-152,-152,-45,16,5,261,12,,,,,,,,,,,session,3083.611230899929,152.0,2.0,73.0,0.020083591432026197,5,0.9822712000459433,1.0490210000425577,1,0.9890366999898106,1.068712200038135,1,0.32719290000386536,0.41144970001187176,,,70.0,61.0,33473,61.0,
152,-152,90,16,6,262,11,,,,,,,,,,,session,3092.437891199952,159.0,2.0,73.0,0.020083591432026197,4,0.7805466999998316,0.9391099999193102,7,0.39288089994806796,0.4929170999675989,0,0.4811649000039324,0.5959378000115976,,,52.0,49.0,33473,61.0,
152,152,0,16,7,263,1,,,,,,,,,,,session,3100.5396635999205,183.0,2.0,73.0,0.020083591432026197,2,0.9408371000317857,1.0054802000522614,6,1.1002036000136286,1.1399102999130264,0,0.6446111999684945,0.8114876999752596,,,58.0,64.0,33473,61.0,
-152,152,90,16,8,264,7,,,,,,,,,,,session,3110.217525199987,128.0,2.0,73.0,0.020083591432026197,2,0.7258384000742808,0.8407035000855103,0,0.4168707999633625,0.5269028999609873,0,0.07255239994265139,0.19352359999902546,,,70.0,73.0,33473,61.0,
-152,-152,0,16,9,265,13,,,,,,,,,,,session,3118.0574642999563,159.0,2.0,73.0,0.020083591432026197,3,1.1405172999948263,1.2840350000187755,7,0.9143213999923319,1.0142483999952674,0,0.01102149998769164,0.05888449994381517,,,55.0,64.0,33473,61.0,
-152,152,45,16,10,266,6,,,,,,,,,,,session,3126.6410743999295,128.0,2.0,73.0,0.020083591432026197,2,0.8793041999451816,0.9280113999266177,1,0.2678002000320703,0.36299729999154806,0,0.29925299994647503,0.447068199981004,,,55.0,49.0,33473,61.0,
-152,152,0,16,11,267,5,,,,,,,,,,,session,3133.849855599925,146.0,2.0,73.0,0.020083591432026197,3,0.7705984999192879,0.9396399999968708,6,0.5946319999638945,0.659813700011,0,0.8779389000264928,1.0099202999845147,,,61.0,55.0,33473,61.0,
152,-152,0,16,12,268,9,,,,,,,,,,,session,3142.4592793999473,159.0,2.0,73.0,0.020083591432026197,2,1.2044823999749497,1.275771899963729,1,0.42163540003821254,0.537992800003849,0,0.31220170005690306,0.42612780001945794,,,61.0,52.0,33473,61.0,
152,-152,45,16,13,269,10,,,,,,,,,,,session,3150.7441365999402,171.0,2.0,73.0,0.020083591432026197,5,1.0474088999908417,1.0871093000750989,7,0.614525799988769,0.6482297000475228,0,0.15115519997198135,0.2712547000264749,,,67.0,52.0,33473,61.0,
152,152,45,16,14,270,2,,,,,,,,,,,session,3159.293747299933,177.0,2.0,73.0,0.020083591432026197,5,0.028620900004170835,0.11028929997701198,6,0.2649544000159949,0.3674923999933526,0,0.5846638000803068,0.6664053000276908,,,61.0,55.0,33473,61.0,
152,152,90,16,15,271,3,,,,,,,,,,,session,3167.062838899903,165.0,2.0,73.0,0.020083591432026197,4,0.6690801000222564,0.8869476000545546,7,0.3545612000161782,0.47422189998906106,0,0.03690339997410774,0.18783059995621443,,,55.0,61.0,33473,61.0,
-152,-152,45,17,0,272,14,,,,,,,,,,,session,3174.98067989992,177.0,2.0,73.0,0.020083591432026197,2,0.40592669998295605,0.5388787999982014,1,0.010939800064079463,0.012856800109148026,0,0.4285060999682173,0.545210300013423,,,55.0,67.0,33473,61.0,
152,-152,90,17,1,273,11,,,,,,,,,,,session,3182.740288299974,152.0,2.0,73.0,0.020083591432026197,3,0.41087220003828406,0.5443396000191569,0,0.36480720003601164,0.5515622000675648,0,0.011728900019079447,0.013664000085555017,,,64.0,73.0,33473,61.0,
-152,152,90,17,2,274,7,,,,,,,,,,,session,3190.3366415000055,177.0,2.0,73.0,0.020083591432026197,5,0.30837220000103116,0.4297840000363067,6,0.35817310004495084,0.4694055001018569,0,0.2972593999002129,0.4325935998931527,,,58.0,61.0,33473,61.0,
152,-152,45,17,3,275,10,,,,,,,,,,,session,3198.370764799998,165.0,2.0,73.0,0.020083591432026197,4,0.3488863999955356,0.6145575999980792,1,0.42963820009026676,0.6121878999983892,0,0.3303333999356255,0.41355299996212125,,,70.0,70.0,33473,61.0,
-152,152,45,17,4,276,6,,,,,,,,,,,session,3206.723861599923,128.0,2.0,73.0,0.020083591432026197,3,0.5375964000122622,0.7319771000184119,7,0.37396890006493777,0.5720818999689072,0,0.296440799953416,0.3960906999418512,,,52.0,73.0,33473,61.0,
152,152,90,17,5,277,3,,,,,,,,,,,session,3214.1469107999,128.0,2.0,73.0,0.020083591432026197,3,0.5989471999928355,0.7655051000183448,0,0.3347190000349656,0.41362090001348406,0,0.048867200035601854,0.15026650007348508,,,73.0,73.0,33473,61.0,
-152,-152,0,17,6,278,13,,,,,,,,,,,session,3221.681723199901,177.0,2.0,73.0,0.020083591432026197,5,0.40003329992759973,0.6002579999621958,7,0.38137540000025183,0.44610169995576143,0,0.35409720009192824,0.45962039998266846,,,55.0,70.0,33473,61.0,
152,-152,0,17,7,279,9,,,,,,,,,,,session,3229.979315000004,183.0,2.0,73.0,0.020083591432026197,2,0.011277700075879693,0.013395400019362569,1,0.33985960006248206,0.5242025000043213,0,0.3569266999838874,0.5568750000093132,,,73.0,73.0,33473,61.0,
152,-152,0,17,7,279,9,,,materials/instructions\12_break.png,3238.2118423999054,3247.634288799949,0,9.275798000046052,9.420737599954009,0.017683599959127605,9.42859269992914,,,,,,,,,,,,,,,,,,,,33473,61.0,
152,152,0,17,8,280,1,,,,,,,,,,,session,3247.650902299909,146.0,2.0,73.0,0.020083591432026197,3,0.30512929998803884,0.45637039991561323,6,0.32098519999999553,0.4915438999887556,0,0.4674870000453666,0.6026937999995425,,,55.0,70.0,33473,61.0,
152,152,45,17,9,281,2,,,,,,,,,,,session,3255.3156259999378,159.0,2.0,73.0,0.020083591432026197,2,0.8908686999930069,0.9889914999948815,0,0.33462059998419136,0.48548250005114824,0,0.6008535000728443,0.7887828000821173,,,67.0,61.0,33473,61.0,
152,-152,-45,17,10,282,8,,,,,,,,,,,session,3264.1189275999786,165.0,2.0,73.0,0.020083591432026197,4,0.34672469994984567,0.5084601000417024,1,0.6171609000302851,0.7002033999888226,1,0.7938670999137685,0.9257735999999568,,,73.0,73.0,33473,61.0,
-152,-152,-45,17,11,283,12,,,,,,,,,,,session,3273.092213499942,134.0,2.0,73.0,0.020083591432026197,3,0.526197100058198,1.1630875000264496,6,0.5975755000254139,0.6864590999903157,0,0.3182051000185311,0.4136325999861583,,,61.0,58.0,33473,61.0,
-152,152,-45,17,12,284,4,,,,,,,,,,,session,3281.1152021999005,183.0,2.0,73.0,0.020083591432026197,2,0.8956724000163376,1.0495949999894947,0,0.22989750001579523,0.4156098000239581,0,0.2972878000000492,0.41141269996296614,,,73.0,58.0,33473,61.0,
152,152,-45,17,13,285,0,,,,,,,,,,,session,3289.8206117999507,134.0,2.0,73.0,0.020083591432026197,2,1.028363100020215,1.1339789999183267,6,0.3263636000920087,0.4449078000616282,0,0.4123246999224648,0.5445815999992192,,,67.0,55.0,33473,61.0,
-152,-152,90,17,14,286,15,,,,,,,,,,,session,3297.841177699971,140.0,2.0,73.0,0.020083591432026197,4,0.6624410999938846,0.812592800008133,1,0.3649576000170782,0.4407080999808386,0,0.2747821999946609,0.37622770003508776,,,61.0,64.0,33473,61.0,
-152,152,0,17,15,287,5,,,,,,,,,,,session,3305.565956999897,152.0,2.0,73.0,0.020083591432026197,2,0.8894421000732109,0.985558700049296,7,0.011008600005879998,0.012915499974042177,0,0.7323873999994248,0.9639510998968035,,,70.0,73.0,33473,61.0,
152,-152,90,18,0,288,11,,,,,,,,,,,session,3314.192026200006,128.0,2.0,73.0,0.020083591432026197,5,0.6653503000270575,0.7293559999670833,0,0.3150683999992907,0.5126114999875426,0,0.4043553000083193,0.5385531999636441,,,58.0,55.0,33473,61.0,
152,152,90,18,1,289,3,,,,,,,,,,,session,3321.545348699903,152.0,2.0,73.0,0.020083591432026197,2,0.5084296999266371,0.5752270999364555,7,0.3234079999383539,0.3894595999736339,0,0.1304343999363482,0.2267635999014601,,,61.0,61.0,33473,61.0,
-152,-152,90,18,2,290,15,,,,,,,,,,,session,3329.0013168998994,165.0,2.0,73.0,0.020083591432026197,4,0.6662373000290245,0.8118365000700578,1,0.45378270000219345,0.5371965999947861,0,0.2897360000060871,0.460452500032261,,,67.0,61.0,33473,61.0,
152,-152,-45,18,3,291,8,,,,,,,,,,,session,3337.4764402,140.0,2.0,73.0,0.020083591432026197,4,0.4113535999786109,0.5274751000106335,1,0.6464962000027299,0.6945732000749558,0,0.5415457999333739,0.6435343999182805,,,67.0,70.0,33473,61.0,
-152,-152,-45,18,4,292,12,,,,,,,,,,,session,3345.5485963999527,171.0,2.0,73.0,0.020083591432026197,5,0.9820093000307679,1.0501645000185817,6,0.3425638999324292,0.4108408000320196,0,0.35927490005269647,0.5117290000198409,,,52.0,61.0,33473,61.0,
152,-152,45,18,5,293,10,,,,,,,,,,,session,3353.8882207999704,152.0,2.0,73.0,0.020083591432026197,3,0.5535777999320999,0.9871471000369638,1,0.41058110003359616,0.5144331000046805,0,0.279919599997811,0.4301426999736577,,,64.0,52.0,33473,61.0,
152,152,-45,18,6,294,0,,,,,,,,,,,session,3361.9257594000082,177.0,2.0,73.0,0.020083591432026197,4,0.010982299922034144,0.16429459990467876,7,0.21415429993066937,0.2641383999725804,0,1.3302432999480516,1.47899819992017,,,55.0,55.0,33473,61.0,
-152,152,45,18,7,295,6,,,,,,,,,,,session,3370.2332103999797,146.0,2.0,73.0,0.020083591432026197,2,1.1409716000780463,1.2620583000825718,1,0.011429899954237044,0.05632169998716563,0,0.07524210005067289,0.20039650006219745,,,70.0,58.0,33473,61.0,
152,152,0,18,8,296,1,,,,,,,,,,,session,3377.959892099956,171.0,2.0,73.0,0.020083591432026197,4,0.7164199999533594,0.9021414000308141,6,0.46158320002723485,0.5776933000888675,0,0.34096360008697957,0.49107610003557056,,,70.0,61.0,33473,61.0,
-152,-152,45,18,9,297,14,,,,,,,,,,,session,3386.6088573999004,140.0,2.0,73.0,0.020083591432026197,2,0.9256717999232933,0.9873833999736235,1,0.24460249999538064,0.3282748000929132,0,0.37603190005756915,0.4934237999841571,,,70.0,49.0,33473,61.0,
152,152,45,18,10,298,2,,,,,,,,,,,session,3394.4184195999987,140.0,2.0,73.0,0.020083591432026197,5,0.29230219998862594,0.45937199995387346,1,0.17079919995740056,0.25607849995139986,0,0.46118400001432747,0.5294544000644237,,,49.0,61.0,33473,61.0,
152,-152,0,18,11,299,9,,,,,,,,,,,session,3401.5244585999753,165.0,2.0,73.0,0.020083591432026197,2,1.6864294999977574,1.7503058000002056,1,0.011994099942967296,0.01400249998550862,0,0.01192850002553314,0.013829300063662231,,,58.0,55.0,33473,61.0,
152,-152,0,18,11,299,9,,,materials/instructions\12_break.png,3409.4833481999813,3431.991539099952,0,22.456071800086647,22.506205800105818,0.010369600029662251,22.520331700099632,,,,,,,,,,,,,,,,,,,,33473,61.0,
-152,152,90,18,12,300,7,,,,,,,,,,,session,3432.013938899967,140.0,2.0,73.0,0.020083591432026197,5,0.5835685000056401,0.7335466999793425,7,0.4076219000853598,0.5227864000480622,0,0.831549399998039,0.9866517999907956,,,61.0,49.0,33473,61.0,
-152,-152,0,18,13,301,13,,,,,,,,,,,session,3440.125309399911,146.0,2.0,73.0,0.020083591432026197,5,0.7930721000302583,0.9871394999790937,1,0.3540176999522373,0.5702745999442413,0,0.45117939996998757,0.6011559000471607,,,58.0,49.0,33473,61.0,
-152,152,0,18,14,302,5,,,,,,,,,,,session,3448.1413694999646,165.0,2.0,73.0,0.020083591432026197,3,0.7073262999765575,0.8384422999806702,6,0.3280376000329852,0.4607975999824703,0,0.011216599959880114,0.013146699988283217,,,49.0,58.0,33473,61.0,
-152,152,-45,18,15,303,4,,,,,,,,,,,session,3455.639375299914,140.0,2.0,73.0,0.020083591432026197,2,0.8845710000023246,0.9652291999664158,0,0.49608439998701215,0.595204500015825,0,0.011111299972981215,0.13042719999793917,,,64.0,67.0,33473,61.0,
152,-152,0,19,0,304,9,,,,,,,,,,,session,3463.5911506999983,165.0,2.0,73.0,0.020083591432026197,5,0.898612100048922,0.9856267999857664,7,1.1302907000062987,1.2079064999707043,0,0.8051200000336394,1.0395206999965012,,,64.0,70.0,33473,61.0,
-152,-152,90,19,1,305,15,,,,,,,,,,,session,3473.474470499903,165.0,2.0,73.0,0.020083591432026197,3,0.5981541000073776,0.8472164000850171,1,0.4035289000021294,0.5571638999972492,0,0.10380369995255023,0.24032720003742725,,,49.0,55.0,33473,61.0,
-152,-152,0,19,2,306,13,,,,,,,,,,,session,3481.25126369996,152.0,2.0,73.0,0.020083591432026197,4,1.70209130004514,1.8123285000910982,0,1.256530400016345,1.3516270000254735,0,0.3115891999332234,0.42766019992996007,,,49.0,52.0,33473,61.0,
152,152,90,19,3,307,3,,,,,,,,,,,session,3490.7908184999833,146.0,2.0,73.0,0.020083591432026197,5,0.3388504000613466,0.37571910000406206,6,0.18873880000319332,0.3724159999983385,1,0.3694446999579668,0.44616109994240105,,,70.0,61.0,33473,61.0,
152,152,-45,19,4,308,0,,,,,,,,,,,session,3498.1794733999996,152.0,2.0,73.0,0.020083591432026197,2,1.390118999988772,1.5637184999650344,1,0.044748199987225235,0.21521129994653165,0,0.646699900040403,0.7738897999515757,,,49.0,55.0,33473,61.0,
152,-152,-45,19,5,309,8,,,,,,,,,,,session,3506.754838099936,171.0,2.0,73.0,0.020083591432026197,4,0.49488970008678734,0.7282135999994352,1,1.0934688999550417,1.1603436999721453,1,0.34845779999159276,0.4318948000436649,,,73.0,55.0,33473,61.0,
-152,-152,-45,19,6,310,12,,,,,,,,,,,session,3515.7944136000006,183.0,2.0,73.0,0.020083591432026197,5,0.7805515000363812,0.8777821999974549,7,0.3239406000357121,0.4077183000044897,0,1.0289755000267178,1.1121291000163183,,,73.0,55.0,33473,61.0,
-152,152,-45,19,7,311,4,,,,,,,,,,,session,3525.100814400008,128.0,2.0,73.0,0.020083591432026197,5,0.6190171999623999,0.6652068999828771,6,0.2642928999848664,0.4644980999873951,0,0.38229570002295077,0.4982694999780506,,,55.0,67.0,33473,61.0,
152,152,0,19,8,312,1,,,,,,,,,,,session,3532.571820699959,146.0,2.0,73.0,0.020083591432026197,3,0.740974000073038,0.9410942000104114,0,0.3624608999816701,0.4300334000727162,0,0.6473620999604464,0.7618169999914244,,,52.0,61.0,33473,61.0,
-152,152,0,19,9,313,5,,,,,,,,,,,session,3540.5408273999346,183.0,2.0,73.0,0.020083591432026197,2,1.015079600038007,1.0817257999442518,6,1.8804205999476835,2.082887399941683,0,1.0467342000920326,1.1793289000634104,,,67.0,52.0,33473,61.0,
152,152,45,19,10,314,2,,,,,,,,,,,session,3551.554885199992,165.0,2.0,73.0,0.020083591432026197,2,1.8373381999554113,1.9021900999359787,1,0.05574350000824779,0.1404477000469342,0,0.21075420000124723,0.2998963000718504,,,49.0,49.0,33473,61.0,
-152,152,45,19,11,315,6,,,,,,,,,,,session,3559.9302223999985,159.0,2.0,73.0,0.020083591432026197,4,0.8308096999535337,0.9769157000118867,7,0.3344461000524461,0.43433469999581575,0,0.1606852998957038,0.26098879997152835,,,61.0,73.0,33473,61.0,
-152,-152,45,19,12,316,14,,,,,,,,,,,session,3568.1809848999837,134.0,2.0,73.0,0.020083591432026197,5,0.9024378000758588,0.9684606000082567,6,0.29875499999616295,0.38387799996417016,0,0.37126819998957217,0.4737345000030473,,,73.0,61.0,33473,61.0,
152,-152,90,19,13,317,11,,,,,,,,,,,session,3576.176445499994,140.0,2.0,73.0,0.020083591432026197,2,1.0666921000229195,1.1644048999296501,0,0.5106279000174254,0.6964641000377014,0,0.4297429999569431,0.5907728000311181,,,70.0,61.0,33473,61.0,
-152,152,90,19,14,318,7,,,,,,,,,,,session,3584.695877499995,165.0,2.0,73.0,0.020083591432026197,2,0.816428399994038,0.8974872999824584,0,0.35414119996130466,0.5021053999662399,0,0.7387551000574604,0.8322738000424579,,,70.0,55.0,33473,61.0,
152,-152,45,19,15,319,10,,,,,,,,,,,session,3593.36921039992,128.0,2.0,73.0,0.020083591432026197,5,0.6902448999462649,0.7709825999336317,6,0.575995699968189,0.690326499985531,0,0.36399800004437566,0.4809750000713393,,,61.0,55.0,33473,61.0,
152,-152,45,19,15,319,10,,,materials/instructions\12_break.png,3601.1153583999258,3614.230829100008,0,13.030216499930248,13.113603699952364,0.024092599982395768,13.121250299969688,,,,,,,,,,,,,,,,,,,,33473,61.0,
,,,,,,,,,materials/instructions\13_end.png,3614.289155300008,3626.3796409999486,0,11.887379799969494,12.088821400073357,0.010803400073200464,12.094776700017974,,,,,,,,,,,,,,,,,,,,33473,61.0,
