x,y,orientation,.thisRepN,.thisTrialN,.thisN,.thisIndex,.stepSize,.intensity,image_name,global_start_time,global_end_time,pressKey,pressRT,releaseRT,image_started,image_ended,name,globalTime,fixation_dur,stimulation_dur,post_fixation,opacity,locationResponse_pressKey,locationResponse_pressRT,locationResponse_releaseRT,orientationResponse_pressKey,orientationResponse_pressRT,orientationResponse_releaseRT,pasResponse_pressKey,pasResponse_pressRT,pasResponse_releaseRT,.response,finalOpacity,postLoc,postOri,ID,frameRate,
,,,0,-1,-1,0,0.0969100130080564,None,materials/instructions\1_welcome.png,3.974421099992469,37.92858449998312,0,33.83421609993093,33.95205349987373,0.060290400171652436,33.95490370015614,,,,,,,,,,,,,,,,,,,,35150,60.0,
,,,0,-1,-1,0,0.0969100130080564,None,materials/instructions\2_instruction.png,37.9833629000932,70.43529079994187,0,32.30169570003636,32.44989599986002,0.013702499913051724,32.457611199934036,,,,,,,,,,,,,,,,,,,,35150,60.0,
,,,0,-1,-1,0,0.0969100130080564,None,materials/instructions\3_location_demo.png,70.49217920005322,70.51713060005568,0,0.022847200045362115,0.02287050010636449,0.012307299999520183,0.02915790001861751,,,,,,,,,,,,,,,,,,,,35150,60.0,
,,,0,-1,-1,0,0.0969100130080564,None,materials/instructions\4_orientation_demo.png,70.54935960005969,85.9284115000628,0,15.193718299968168,15.376931499922648,0.0217718998901546,15.384807399939746,,,,,,,,,,,,,,,,,,,,35150,60.0,
,,,0,-1,-1,0,0.0969100130080564,None,materials/instructions\5_pas_demo.png,85.9801825999748,100.72700949991122,0,14.595214000204578,14.745186500018463,0.01927310018800199,14.752863200148568,,,,,,,,,,,,,,,,,,,,35150,60.0,
-77,77,-45,0,-1,-1,0,0.0969100130080564,None,,,,,,,,,session,100.74338630004786,132.0,2.0,72.0,1.0,2,2.0886593000032008,2.2554047000594437,1,2.2487244000658393,2.381523799849674,6,6.134456200059503,6.351688200142235,,,,,35150,60.0,
77,77,-45,0,-1,-1,0,0.0969100130080564,None,,,,,,,,,session,115.32283439999446,180.0,2.0,72.0,1.0,5,0.9650151999667287,1.14849659986794,7,2.414936800021678,2.5821821000427008,6,2.159317299956456,2.3921592999249697,,,,,35150,60.0,
77,77,90,0,-1,-1,0,0.0969100130080564,None,,,,,,,,,session,126.39648450003006,162.0,2.0,72.0,1.0,5,0.5866971998475492,0.7700636000372469,6,1.6700212000869215,1.8704554000869393,1,1.968982399906963,2.169293300015852,,,,,35150,60.0,
77,77,45,0,-1,-1,0,0.0969100130080564,None,,,,,,,,,session,135.28526109992526,144.0,2.0,72.0,1.0,5,0.6668036999180913,0.8364120000042021,7,2.5195767001714557,2.7169765001162887,1,2.6178649000357836,2.7844674999359995,,,,,35150,60.0,
77,77,0,0,-1,-1,0,0.0969100130080564,None,,,,,,,,,session,145.41366120008752,168.0,2.0,72.0,1.0,5,0.6331644998863339,0.8348846998997033,0,2.0344799000304192,2.2018832000903785,6,1.6196073000319302,1.8206003000959754,,,,,35150,60.0,
,,,0,-1,-1,0,0.0969100130080564,None,materials/instructions\10_staircase_start.png,154.48161590006202,164.6277977998834,0,9.996167700039223,10.14441079995595,0.019984199898317456,10.151918199844658,,,,,,,,,,,,,,,,,,,,35150,60.0,
,,,0,0,-1,0,0.0969100130080564,0.4,,,,,,,,,staircase,164.64272899995558,180.0,2.0,72.0,0.4,,,,7,1.5648647998459637,1.7648789999075234,,,,1,,,,35150,60.0,
,,,0,1,-1,0,0.0969100130080564,0.32,,,,,,,,,staircase,170.7143478000071,156.0,2.0,72.0,0.32,,,,1,0.9905139000620693,1.1728819999843836,,,,1,,,,35150,60.0,
,,,0,2,-1,0,0.0969100130080564,0.256,,,,,,,,,staircase,175.7992664000485,150.0,2.0,72.0,0.256,,,,6,1.1613064999692142,1.3445671999361366,,,,1,,,,35150,60.0,
,,,0,3,-1,0,0.0969100130080564,0.2048,,,,,,,,,staircase,180.95241550006904,174.0,2.0,72.0,0.2048,,,,7,1.261170200072229,1.461202499922365,,,,1,,,,35150,60.0,
,,,0,4,-1,0,0.0969100130080564,0.16384,,,,,,,,,staircase,187.1101921000518,138.0,2.0,72.0,0.16384,,,,7,1.053244300186634,1.2534193000756204,,,,1,,,,35150,60.0,
,,,0,5,-1,0,0.0969100130080564,0.13107200000000002,,,,,,,,,staircase,191.98063099989668,126.0,2.0,72.0,0.13107200000000002,,,,1,0.688213599845767,0.8884470998309553,,,,1,,,,35150,60.0,
,,,0,6,-1,0,0.0969100130080564,0.10485760000000002,,,,,,,,,staircase,196.28111089998856,174.0,2.0,72.0,0.10485760000000002,,,,1,0.7369134000036865,0.9203935998957604,,,,1,,,,35150,60.0,
,,,0,7,-1,0,0.0969100130080564,0.08388608000000002,,,,,,,,,staircase,201.41764050000347,126.0,2.0,72.0,0.08388608000000002,,,,0,0.5525849000550807,0.7371576000005007,,,,1,,,,35150,60.0,
,,,0,8,-1,0,0.0969100130080564,0.06710886400000002,,,,,,,,,staircase,205.5723762998823,156.0,2.0,72.0,0.06710886400000002,,,,6,1.2602685000747442,1.4280598999466747,,,,1,,,,35150,60.0,
,,,0,9,-1,0,0.0969100130080564,0.053687091200000016,,,,,,,,,staircase,211.4969164999202,156.0,2.0,72.0,0.053687091200000016,,,,0,0.7892148999962956,1.0058406998869032,,,,1,,,,35150,60.0,
,,,0,10,-1,0,0.0969100130080564,0.04294967296000001,,,,,,,,,staircase,216.41627470008098,126.0,2.0,72.0,0.04294967296000001,,,,0,0.8187555000185966,1.1042567000258714,,,,1,,,,35150,60.0,
,,,0,11,-1,0,0.0969100130080564,0.034359738368000006,,,,,,,,,staircase,220.93459419999272,126.0,2.0,72.0,0.034359738368000006,,,,6,2.821264199912548,3.00504479999654,,,,0,,,,35150,60.0,
,,,0,12,-1,0,0.0969100130080564,0.042949672960000004,,,,,,,,,staircase,227.35592109989375,138.0,2.0,72.0,0.042949672960000004,,,,0,0.49952700012363493,0.6668622000142932,,,,1,,,,35150,60.0,
,,,0,13,-1,0,0.0969100130080564,0.034359738368000006,,,,,,,,,staircase,232.24844689993188,168.0,2.0,72.0,0.034359738368000006,,,,0,0.5332917999476194,0.7525559000205249,,,,1,,,,35150,60.0,
,,,0,14,-1,0,0.0969100130080564,0.027487790694400004,,,,,,,,,staircase,237.13359219999984,138.0,2.0,72.0,0.027487790694400004,,,,7,1.2376381000503898,1.4375593001022935,,,,1,,,,35150,60.0,
,,,0,15,-1,0,0.0969100130080564,0.021990232555520003,,,,,,,,,staircase,242.18317710002884,132.0,2.0,72.0,0.021990232555520003,,,,1,4.814341800054535,4.942009299993515,,,,0,,,,35150,60.0,
,,,0,16,-1,0,0.0969100130080564,0.027487790694400004,,,,,,,,,staircase,250.64161879988387,180.0,2.0,72.0,0.027487790694400004,,,,7,1.3039289999287575,1.6229439999442548,,,,1,,,,35150,60.0,
,,,0,17,-1,0,0.0969100130080564,0.021990232555520003,,,,,,,,,staircase,257.01461559999734,126.0,2.0,72.0,0.021990232555520003,,,,7,2.4197305999696255,2.719895899994299,,,,1,,,,35150,60.0,
,,,0,18,-1,0,0.0969100130080564,0.017592186044416,,,,,,,,,staircase,263.1487499999348,180.0,2.0,72.0,0.017592186044416,,,,0,0.8706569999922067,1.0549902999773622,,,,0,,,,35150,60.0,
,,,0,19,-1,0,0.0969100130080564,0.021990232555520003,,,,,,,,,staircase,268.52195150009356,150.0,2.0,72.0,0.021990232555520003,,,,0,0.5781019001733512,0.7779137999750674,,,,1,,,,35150,60.0,
,,,0,20,-1,0,0.0969100130080564,0.017592186044416,,,,,,,,,staircase,273.2090316999238,156.0,2.0,72.0,0.017592186044416,,,,1,1.7241297999862581,1.8917741999030113,,,,0,,,,35150,60.0,
,,,0,21,-1,0,0.0969100130080564,0.021990232555520003,,,,,,,,,staircase,279.3646128999535,132.0,2.0,72.0,0.021990232555520003,,,,6,1.1528331998270005,1.3863231998402625,,,,1,,,,35150,60.0,
,,,0,22,-1,0,0.0969100130080564,0.017592186044416,,,,,,,,,staircase,284.2661886001006,138.0,2.0,72.0,0.017592186044416,,,,7,5.775555399945006,6.0423830000218,,,,0,,,,35150,60.0,
,,,0,23,-1,0,0.0969100130080564,0.021990232555520003,,,,,,,,,staircase,293.9222691000905,132.0,2.0,72.0,0.021990232555520003,,,,7,2.5611071998719126,2.7610751998145133,,,,1,,,,35150,60.0,
,,,0,24,-1,0,0.0969100130080564,0.017592186044416,,,,,,,,,staircase,300.779152299976,144.0,2.0,72.0,0.017592186044416,,,,1,2.3381658999715,2.5550142999272794,,,,0,,,,35150,60.0,
,,,0,25,-1,0,0.0969100130080564,0.021990232555520003,,,,,,,,,staircase,307.0495619000867,150.0,2.0,72.0,0.021990232555520003,,,,6,4.92388190003112,5.12383950012736,,,,1,,,,35150,60.0,
,,,0,26,-1,0,0.0969100130080564,0.017592186044416,,,,,,,,,staircase,315.9888500000816,138.0,2.0,72.0,0.017592186044416,,,,0,0.7304080000612885,1.0124858000781387,,,,1,,,,35150,60.0,
,,,0,27,-1,0,0.0969100130080564,0.014073748835532801,,,,,,,,,staircase,321.17994479998015,138.0,2.0,72.0,0.014073748835532801,,,,7,1.5211436999961734,2.1709509999491274,,,,0,,,,35150,60.0,
,,,0,28,-1,0,0.0969100130080564,0.017592186044416,,,,,,,,,staircase,326.9651814000681,162.0,2.0,72.0,0.017592186044416,,,,6,4.900519700022414,5.150968000059947,,,,0,,,,35150,60.0,
,,,0,29,-1,0,0.0969100130080564,0.021990232555520003,,,,,,,,,staircase,336.13847039989196,138.0,2.0,72.0,0.021990232555520003,,,,1,1.4679955998435616,1.6312029999680817,,,,1,,,,35150,60.0,
,,,0,30,-1,0,0.0969100130080564,0.017592186044416,,,,,,,,,staircase,341.8111845999956,162.0,2.0,72.0,0.017592186044416,,,,6,2.938364499947056,3.1046386000234634,,,,0,,,,35150,60.0,
,,,0,31,-1,0,0.0969100130080564,0.021990232555520003,,,,,,,,,staircase,348.93089640000835,156.0,2.0,72.0,0.021990232555520003,,,,6,1.1054326999001205,1.2894250999670476,,,,1,,,,35150,60.0,
,,,0,32,-1,0,0.0969100130080564,0.017592186044416,,,,,,,,,staircase,354.1352172999177,156.0,2.0,72.0,0.017592186044416,,,,6,0.7972703999839723,0.997460899874568,,,,0,,,,35150,60.0,
,,,0,33,-1,0,0.0969100130080564,0.021990232555520003,,,,,,,,,staircase,359.05523540009744,174.0,2.0,72.0,0.021990232555520003,,,,6,0.6715683999937028,0.8548918000888079,,,,1,,,,35150,60.0,
,,,0,34,-1,0,0.0969100130080564,0.017592186044416,,,,,,,,,staircase,364.7291184000205,144.0,2.0,72.0,0.017592186044416,,,,0,4.832435899879783,5.20061849988997,,,,0,,,,35150,60.0,
,,,0,35,-1,0,0.0969100130080564,0.021990232555520003,,,,,,,,,staircase,373.6366946999915,180.0,2.0,72.0,0.021990232555520003,,,,7,1.5313623999245465,2.1474105999805033,,,,1,,,,35150,60.0,
,,,0,36,-1,0,0.0969100130080564,0.017592186044416,,,,,,,,,staircase,380.1046370000113,126.0,2.0,72.0,0.017592186044416,,,,1,3.9491870999336243,4.132988099940121,,,,1,,,,35150,60.0,
,,,0,37,-1,0,0.0969100130080564,0.014073748835532801,,,,,,,,,staircase,387.8496705999132,126.0,2.0,72.0,0.014073748835532801,,,,1,1.0501308999955654,1.266814700094983,,,,1,,,,35150,60.0,
,,,0,38,-1,0,0.0969100130080564,0.01125899906842624,,,,,,,,,staircase,392.5499420000706,168.0,2.0,72.0,0.01125899906842624,,,,1,7.161286300048232,7.963264600140974,,,,0,,,,35150,60.0,
,,,0,39,-1,0,0.0969100130080564,0.014073748835532801,,,,,,,,,staircase,404.6255113000516,138.0,2.0,72.0,0.014073748835532801,,,,6,4.481579700019211,4.681523400126025,,,,0,,,,35150,60.0,
,,,0,40,-1,0,0.0969100130080564,0.017592186044416,,,,,,,,,staircase,413.4995371000841,180.0,2.0,72.0,0.017592186044416,,,,7,7.095708800014108,7.245131599949673,,,,0,,,,35150,60.0,
,,,0,41,-1,0,0.0969100130080564,0.021990232555520003,,,,,,,,,staircase,425.0571363000199,156.0,2.0,72.0,0.021990232555520003,,,,0,1.0295311999507248,1.2132710998412222,,,,1,,,,35150,60.0,
,,,0,42,-1,0,0.0969100130080564,0.017592186044416,,,,,,,,,staircase,430.9134480000939,150.0,2.0,72.0,0.017592186044416,,,,6,1.2780323000624776,1.428564100060612,,,,1,,,,35150,60.0,
,,,0,43,-1,0,0.0969100130080564,0.014073748835532801,,,,,,,,,staircase,436.14853379991837,162.0,2.0,72.0,0.014073748835532801,,,,7,3.6833199001848698,4.485457400092855,,,,1,,,,35150,60.0,
,,,0,44,-1,0,0.0969100130080564,0.01125899906842624,,,,,,,,,staircase,444.6554819000885,126.0,2.0,72.0,0.01125899906842624,,,,6,1.8929634999949485,2.0430272000376135,,,,0,,,,35150,60.0,
,,,0,45,-1,0,0.0969100130080564,0.014073748835532801,,,,,,,,,staircase,450.13284220010974,174.0,2.0,72.0,0.014073748835532801,,,,0,7.854449199978262,8.137924700044096,,,,0,,,,35150,60.0,
,,,0,46,-1,0,0.0969100130080564,0.017592186044416,,,,,,,,,staircase,462.75167390005663,180.0,2.0,72.0,0.017592186044416,,,,1,1.1340725000482053,1.2340889000333846,,,,1,,,,35150,60.0,
,,,0,47,-1,0,0.0969100130080564,0.014073748835532801,,,,,,,,,staircase,468.305016099941,132.0,2.0,72.0,0.014073748835532801,,,,6,3.8807463000994176,4.046833400148898,,,,0,,,,35150,60.0,
,,,0,48,-1,0,0.0969100130080564,0.017592186044416,,,,,,,,,staircase,476.08025699993595,144.0,2.0,72.0,0.017592186044416,,,,7,5.707507600076497,5.9244093000888824,,,,0,,,,35150,60.0,
,,,0,49,-1,0,0.0969100130080564,0.021990232555520003,,,,,,,,,staircase,485.7192444000393,126.0,2.0,72.0,0.021990232555520003,,,,7,1.2778826002031565,1.4950493001379073,,,,1,,,,35150,60.0,
,,,0,50,-1,0,0.0969100130080564,0.017592186044416,,,,,,,,,staircase,490.63964410009794,180.0,2.0,72.0,0.017592186044416,,,,1,1.5111108000855893,1.7081321000587195,,,,1,,,,35150,60.0,
,,,0,51,-1,0,0.0969100130080564,0.014073748835532801,,,,,,,,,staircase,497.2637656000443,138.0,2.0,72.0,0.014073748835532801,,,,6,1.5821776001248509,1.8823313999455422,,,,0,,,,35150,60.0,
,,,0,52,-1,0,0.0969100130080564,0.017592186044416,,,,,,,,,staircase,502.7653119000606,162.0,2.0,72.0,0.017592186044416,,,,0,2.9232372001279145,3.323536700103432,,,,1,,,,35150,60.0,
,,,0,53,-1,0,0.0969100130080564,0.014073748835532801,,,,,,,,,staircase,510.1036396001,162.0,2.0,72.0,0.014073748835532801,,,,7,2.5313540999777615,2.9695526999421418,,,,0,,,,35150,60.0,
,,,0,54,-1,0,0.0969100130080564,0.017592186044416,,,,,,,,,staircase,517.0999457999133,126.0,2.0,72.0,0.017592186044416,,,,6,5.338254299946129,5.472549499943852,,,,1,,,,35150,60.0,
,,,0,55,-1,0,0.0969100130080564,0.014073748835532801,,,,,,,,,staircase,526.1185572000686,180.0,2.0,72.0,0.014073748835532801,,,,1,6.17536610015668,6.44442250020802,,,,0,,,,35150,60.0,
,,,0,56,-1,0,0.0969100130080564,0.017592186044416,,,,,,,,,staircase,536.8764857000206,168.0,2.0,72.0,0.017592186044416,,,,1,1.262574000051245,1.396144500002265,,,,1,,,,35150,60.0,
,,,0,57,-1,0,0.0969100130080564,0.014073748835532801,,,,,,,,,staircase,542.8820360000245,162.0,2.0,72.0,0.014073748835532801,,,,7,3.902504300000146,4.1844665999524295,,,,0,,,,35150,60.0,
,,,0,58,-1,0,0.0969100130080564,0.017592186044416,,,,,,,,,staircase,551.085817999905,168.0,2.0,72.0,0.017592186044416,,,,6,1.6721624999772757,1.871735299937427,,,,0,,,,35150,60.0,
,,,0,59,-1,0,0.0969100130080564,0.021990232555520003,,,,,,,,,staircase,557.0731096998788,132.0,2.0,72.0,0.021990232555520003,,,,0,0.632774299941957,0.761824999935925,,,,1,,,,35150,60.0,
,,,0,60,-1,0,0.0969100130080564,0.017592186044416,,,,,,,,,staircase,561.7629517000169,162.0,2.0,72.0,0.017592186044416,,,,0,1.8219481001142412,1.9697846001945436,,,,1,,,,35150,60.0,
,,,0,61,-1,0,0.0969100130080564,0.014073748835532801,,,,,,,,,staircase,567.7501298999414,132.0,2.0,72.0,0.014073748835532801,,,,6,4.325554399983957,4.592468099901453,,,,0,,,,35150,60.0,
,,,0,62,-1,0,0.0969100130080564,0.017592186044416,,,,,,,,,staircase,575.8539710000623,168.0,2.0,72.0,0.017592186044416,,,,6,1.0705601000227034,1.2371616000309587,,,,1,,,,35150,60.0,
,,,0,63,-1,0,0.0969100130080564,0.014073748835532801,,,,,,,,,staircase,581.2077198000625,168.0,2.0,72.0,0.014073748835532801,,,,7,4.034062300110236,4.2848066000733525,,,,0,,,,35150,60.0,
,,,0,64,-1,0,0.0969100130080564,0.017592186044416,,,,,,,,,staircase,590.1834706999362,138.0,2.0,72.0,0.017592186044416,,,,7,4.137489199871197,4.254240300040692,,,,1,,,,35150,60.0,
,,,0,65,-1,0,0.0969100130080564,0.014073748835532801,,,,,,,,,staircase,598.0546556001063,162.0,2.0,72.0,0.014073748835532801,,,,1,3.147887999890372,3.465721699874848,,,,0,,,,35150,60.0,
,,,0,66,-1,0,0.0969100130080564,0.017592186044416,,,,,,,,,staircase,605.5340261999518,168.0,2.0,72.0,0.017592186044416,,,,6,2.3064625998958945,2.641532699810341,,,,1,,,,35150,60.0,
,,,0,67,-1,0,0.0969100130080564,0.014073748835532801,,,,,,,,,staircase,612.418865900021,126.0,2.0,72.0,0.014073748835532801,,,,6,4.156990899937227,4.387569800019264,,,,1,,,,35150,60.0,
,,,0,68,-1,0,0.0969100130080564,0.01125899906842624,,,,,,,,,staircase,620.2215503999032,180.0,2.0,72.0,0.01125899906842624,,,,1,2.33862020005472,2.5603781999088824,,,,0,,,,35150,60.0,
,,,0,69,-1,0,0.0969100130080564,0.014073748835532801,,,,,,,,,staircase,627.101046500029,162.0,2.0,72.0,0.014073748835532801,,,,7,7.823363099945709,8.124361000023782,,,,0,,,,35150,60.0,
,,,0,-1,-1,0,,,materials/instructions\11_session_start.png,639.4725544999819,655.3329459000379,0,15.708739900030196,15.858404800063,0.015699600102379918,15.866286700125784,,,,,,,,,,,,,,,,,,,,35150,60.0,
,,,0,-1,-1,0,,,,,,,,,,,,,,,,,,,,,,,,,,,0.016202403346907136,,,35150,60.0,
77,-77,90,0,0,0,11,,,,,,,,,,,session,655.3508279998787,150.0,2.0,72.0,0.016202403346907136,2,3.1943320999853313,3.3778756998945028,1,1.5212288999464363,1.6732361000031233,0,1.3382798999082297,1.4733366998843849,,,60.0,60.0,35150,60.0,
-77,77,-45,0,1,1,4,,,,,,,,,,,session,667.8290919999126,180.0,2.0,72.0,0.4,2,1.1110606999136508,1.2783357999287546,1,1.787638499867171,1.9384508000221103,7,1.049398500006646,1.2495111001189798,,,48.0,66.0,35150,60.0,
77,77,45,0,2,2,2,,,,,,,,,,,session,679.2853278000839,174.0,2.0,72.0,0.016202403346907136,4,1.9748217999003828,2.1749366000294685,7,0.6498668999411166,0.8674295998644084,0,0.9036506998818368,1.1208980998490006,,,69.0,60.0,35150,60.0,
-77,-77,90,0,3,3,15,,,,,,,,,,,session,689.9605513000861,174.0,2.0,72.0,0.016202403346907136,2,3.5067587001249194,3.7231709000188857,1,0.7175179999321699,0.9320952000562102,0,0.7213603998534381,0.989595599938184,,,63.0,60.0,35150,60.0,
77,-77,-45,0,4,4,8,,,,,,,,,,,session,702.5566171000246,144.0,2.0,72.0,0.016202403346907136,5,5.159290099982172,5.326963200001046,0,0.7294635998550802,0.9466844999697059,0,0.4809697000309825,0.7618374999146909,,,69.0,69.0,35150,60.0,
77,77,-45,0,5,5,0,,,,,,,,,,,session,715.7663141998928,156.0,2.0,72.0,0.016202403346907136,4,1.8537355998996645,2.120064799906686,6,0.6668613001238555,0.9344332001637667,0,0.7661357999313623,1.0005222000181675,,,69.0,60.0,35150,60.0,
77,-77,0,0,6,6,9,,,,,,,,,,,session,726.0553222000599,174.0,2.0,72.0,0.016202403346907136,3,1.8676952999085188,2.1178657999262214,7,0.685138100059703,0.8678249998483807,0,0.7157330999616534,1.0072967999149114,,,60.0,48.0,35150,60.0,
-77,77,45,0,7,7,6,,,,,,,,,,,session,736.204373500077,180.0,2.0,72.0,0.016202403346907136,4,2.441661600023508,2.6579803000204265,1,0.8324414999224246,1.0663230000063777,0,0.698249900015071,0.8483619999606162,,,54.0,69.0,35150,60.0,
-77,-77,0,0,8,8,13,,,,,,,,,,,session,747.8709603000898,132.0,2.0,72.0,0.4,3,1.2687568999826908,1.4354501001071185,0,1.0906188001390547,1.3075610999949276,7,1.8382748998701572,2.0299825998954475,,,51.0,63.0,35150,60.0,
77,77,90,0,9,9,3,,,,,,,,,,,session,758.1876097000204,174.0,2.0,72.0,0.016202403346907136,5,4.2661879998631775,4.482969299890101,6,0.7345354999415576,0.9529473998118192,0,1.320816099876538,1.5876758999656886,,,66.0,57.0,35150,60.0,
-77,77,90,0,10,10,7,,,,,,,,,,,session,772.2557979000267,132.0,2.0,72.0,0.016202403346907136,4,1.5684589000884444,1.8035416000057012,1,2.424727499950677,2.6640170000027865,0,1.1280448997858912,1.3914842999074608,,,48.0,66.0,35150,60.0,
-77,77,0,0,11,11,5,,,,,,,,,,,session,783.6683525000699,180.0,2.0,72.0,0.4,2,1.2989203000906855,1.4991848999634385,0,0.6509181999135762,0.8843851001001894,7,0.5481358000542969,0.7973431001883,,,63.0,63.0,35150,60.0,
77,77,0,0,12,12,1,,,,,,,,,,,session,793.4206826998852,180.0,2.0,72.0,0.4,5,1.3869793000631034,1.6044262999203056,0,0.8026006000582129,1.0361496000550687,1,0.6317445000167936,0.8086779001168907,,,57.0,69.0,35150,60.0,
-77,-77,-45,0,13,13,12,,,,,,,,,,,session,803.4166385000572,174.0,2.0,72.0,0.4,3,1.1762292000930756,1.4272803000640124,1,1.5187241001985967,1.7182905001100153,7,1.8479452999308705,2.0147314998321235,,,54.0,54.0,35150,60.0,
77,-77,45,0,14,14,10,,,,,,,,,,,session,815.1068243999034,156.0,2.0,72.0,0.016202403346907136,4,1.670272700022906,1.9205463000107557,6,1.887614900013432,2.0867949000094086,0,0.6953960000537336,0.9619511000346392,,,48.0,57.0,35150,60.0,
-77,-77,45,0,15,15,14,,,,,,,,,,,session,825.8886013999581,168.0,2.0,72.0,0.016202403346907136,3,1.6230712998658419,1.7723399999085814,7,1.3384553999640048,1.5056576998904347,1,1.7186804001685232,1.8354355001356453,,,72.0,60.0,35150,60.0,
-77,-77,90,1,0,16,15,,,,,,,,,,,session,837.7212356000673,132.0,2.0,72.0,0.016202403346907136,4,1.2477263999171555,1.4309336999431252,0,0.33355439989827573,0.617846499895677,0,0.5509703001007438,0.7845515001099557,,,57.0,48.0,35150,60.0,
77,77,-45,1,1,17,0,,,,,,,,,,,session,845.9647693000734,180.0,2.0,72.0,0.016202403346907136,5,2.303304099943489,2.4718136000446975,1,0.7993930999655277,0.9495882000774145,0,0.48723069997504354,0.6540888000745326,,,57.0,57.0,35150,60.0,
-77,77,45,1,2,18,6,,,,,,,,,,,session,857.0411088000983,126.0,2.0,72.0,0.016202403346907136,3,1.4338319001253694,1.6839425000362098,6,1.501196499913931,1.701195599976927,1,0.7814937999937683,0.9648944002110511,,,48.0,51.0,35150,60.0,
77,-77,90,1,3,19,11,,,,,,,,,,,session,866.5947386000771,162.0,2.0,72.0,0.016202403346907136,5,1.9122262001037598,2.1319210999645293,6,0.3353872001171112,0.5674331001937389,0,0.4956571999937296,0.7291675999294966,,,69.0,51.0,35150,60.0,
77,-77,90,1,3,19,11,,,materials/instructions\12_break.png,876.7990858000703,892.896440200042,0,15.961842900142074,16.09535050019622,0.02204530010931194,16.107568599982187,,,,,,,,,,,,,,,,,,,,35150,60.0,
77,77,45,1,4,20,2,,,,,,,,,,,session,892.9171585999429,138.0,2.0,72.0,0.016202403346907136,5,3.1265809999313205,3.3298655000980943,1,1.536231600213796,1.805107100168243,0,0.5030660999473184,1.953794299857691,,,69.0,69.0,35150,60.0,
-77,-77,0,1,5,21,13,,,,,,,,,,,session,906.1412730000447,150.0,2.0,72.0,0.016202403346907136,4,1.6266799001023173,1.8766439000610262,7,1.2802836000919342,1.5184950002003461,0,2.07718940009363,2.4452573000453413,,,69.0,57.0,35150,60.0,
-77,77,0,1,6,22,5,,,,,,,,,,,session,918.0371552999131,156.0,2.0,72.0,0.4,2,0.8325145000126213,0.9994037998840213,0,0.5395450999494642,0.7393495000433177,7,0.4671689998358488,0.7349237999878824,,,66.0,60.0,35150,60.0,
77,-77,0,1,7,23,9,,,,,,,,,,,session,926.656699199928,168.0,2.0,72.0,0.016202403346907136,4,1.4692414999008179,1.669612400000915,6,1.5042171999812126,1.8074042000807822,0,0.6430814999621361,0.9099085000343621,,,57.0,54.0,35150,60.0,
77,-77,-45,1,8,24,8,,,,,,,,,,,session,937.1853702999651,168.0,2.0,72.0,0.016202403346907136,3,1.8798499000258744,2.179719500010833,0,1.1700617999304086,1.5691941999830306,0,0.6845112999435514,0.9680721000768244,,,48.0,60.0,35150,60.0,
77,-77,45,1,9,25,10,,,,,,,,,,,session,947.9893283999991,168.0,2.0,72.0,0.016202403346907136,3,0.012985799927264452,1.3295152001082897,6,0.6516813999041915,0.852005299879238,0,0.7471805999521166,0.8697274001315236,,,57.0,51.0,35150,60.0,
-77,77,90,1,10,26,7,,,,,,,,,,,session,957.1230699999724,150.0,2.0,72.0,0.016202403346907136,2,0.9273198000155389,1.0454998998902738,6,1.0406208999920636,1.1739333998411894,1,2.4669713000766933,2.5493281001690775,,,63.0,60.0,35150,60.0,
77,77,90,1,11,27,3,,,,,,,,,,,session,968.47459420003,132.0,2.0,72.0,0.016202403346907136,4,1.3788066999986768,1.5289027001708746,7,0.4567353001330048,0.6924362001009285,0,0.2650855998508632,0.4980230999644846,,,54.0,63.0,35150,60.0,
-77,-77,45,1,12,28,14,,,,,,,,,,,session,976.7789183000568,174.0,2.0,72.0,0.4,3,1.2151752999052405,1.4322931999340653,7,0.9881439998280257,1.171523599885404,6,1.7086911001242697,1.8751689000055194,,,66.0,54.0,35150,60.0,
77,77,0,1,13,29,1,,,,,,,,,,,session,988.2211291000713,162.0,2.0,72.0,0.016202403346907136,5,1.2267383998259902,1.360258299857378,0,0.6088655998464674,0.7756445999257267,1,3.0300994000863284,3.115987400058657,,,60.0,54.0,35150,60.0,
-77,77,-45,1,14,30,4,,,,,,,,,,,session,999.5141324999277,126.0,2.0,72.0,0.016202403346907136,4,2.6781523001845926,2.843882800079882,1,0.4373010001145303,0.6038574001286179,0,0.45163719984702766,0.6337244999594986,,,60.0,60.0,35150,60.0,
-77,-77,-45,1,15,31,12,,,,,,,,,,,session,1009.704474600032,144.0,2.0,72.0,0.016202403346907136,2,2.2336980998516083,2.3518884999211878,1,0.9265958999749273,1.0763135999441147,0,0.542528800200671,0.6259978001471609,,,48.0,66.0,35150,60.0,
-77,-77,90,2,0,32,15,,,,,,,,,,,session,1019.4969750999007,150.0,2.0,72.0,0.016202403346907136,5,2.031418199883774,2.2110879998654127,6,1.1360239998903126,1.3505164999514818,0,0.948005799902603,1.1650882998947054,,,66.0,60.0,35150,60.0,
-77,77,90,2,1,33,7,,,,,,,,,,,session,1030.4379461000208,132.0,2.0,72.0,0.016202403346907136,4,2.6874059999827296,2.9014215997885913,7,0.3856266001239419,0.6192928000818938,0,0.4938055998645723,0.8272553998976946,,,60.0,72.0,35150,60.0,
77,-77,45,2,2,34,10,,,,,,,,,,,session,1040.6264208001085,150.0,2.0,72.0,0.016202403346907136,4,0.802864900091663,1.0196207999251783,6,1.2653002000879496,1.4322061999700963,1,0.6646904000081122,0.7981797999236733,,,57.0,48.0,35150,60.0,
77,-77,-45,2,3,35,8,,,,,,,,,,,session,1049.5878631998785,162.0,2.0,72.0,0.016202403346907136,2,2.357389000011608,2.572809600038454,1,0.47016089991666377,0.7214553998783231,0,0.8145305998623371,1.0126802998129278,,,72.0,63.0,35150,60.0,
-77,77,45,2,4,36,6,,,,,,,,,,,session,1060.3250341000967,150.0,2.0,72.0,0.016202403346907136,4,5.674551599891856,5.853892500046641,1,2.3862377000041306,2.603783399797976,0,0.8503624000586569,1.0824539000168443,,,66.0,51.0,35150,60.0,
77,77,-45,2,5,37,0,,,,,,,,,,,session,1075.8224581999239,180.0,2.0,72.0,0.016202403346907136,5,1.0176923000253737,1.1854820000007749,1,1.4242825000546873,1.591683499980718,1,0.43473410001024604,0.635038300184533,,,57.0,54.0,35150,60.0,
77,77,90,2,6,38,3,,,,,,,,,,,session,1085.5110390000045,180.0,2.0,72.0,0.016202403346907136,5,0.9726988999173045,1.172374399844557,6,0.3657487998716533,0.579771899851039,0,0.5196169000118971,0.8039011999499053,,,63.0,66.0,35150,60.0,
77,-77,0,2,7,39,9,,,,,,,,,,,session,1094.6910898000933,132.0,2.0,72.0,0.016202403346907136,2,2.298762599937618,2.515010599978268,1,1.7392502001021057,1.9574973001144826,0,0.3021108000539243,0.5355444999877363,,,54.0,60.0,35150,60.0,
77,-77,0,2,7,39,9,,,materials/instructions\12_break.png,1105.2709365000483,1134.0025969999842,0,28.5634801001288,28.730181799968705,0.022585100028663874,28.737615099875256,,,,,,,,,,,,,,,,,,,,35150,60.0,
-77,-77,-45,2,8,40,12,,,,,,,,,,,session,1134.019323100103,174.0,2.0,72.0,0.016202403346907136,3,1.1141236000694335,1.248701399890706,6,1.3408908999990672,1.5717996000312269,0,0.8686416998971254,1.0676826999988407,,,63.0,51.0,35150,60.0,
-77,-77,45,2,9,41,14,,,,,,,,,,,session,1144.7393579001073,156.0,2.0,72.0,0.016202403346907136,2,3.4755872001405805,3.625763599993661,1,2.3725447000470012,2.5576621000654995,0,0.8290572999976575,1.0073989001102746,,,60.0,63.0,35150,60.0,
77,-77,90,2,10,42,11,,,,,,,,,,,session,1158.0369098999072,180.0,2.0,72.0,0.016202403346907136,5,1.834183600032702,2.0183065000455827,0,0.5378052000887692,1.1189073999412358,0,0.5212530000135303,0.7042793999426067,,,66.0,66.0,35150,60.0,
-77,-77,0,2,11,43,13,,,,,,,,,,,session,1168.6253692000173,180.0,2.0,72.0,0.016202403346907136,3,1.0816842999774963,1.2985162001568824,6,0.5181974999140948,0.8020723999943584,0,1.338042200077325,1.470687699969858,,,54.0,60.0,35150,60.0,
77,77,0,2,12,44,1,,,,,,,,,,,session,1178.551023399923,180.0,2.0,72.0,0.016202403346907136,4,2.5135647000279278,2.6810420998372138,1,1.3047599999699742,1.4874412000644952,0,0.569178800098598,0.7194705000147223,,,54.0,69.0,35150,60.0,
-77,77,0,2,13,45,5,,,,,,,,,,,session,1190.4589180999901,138.0,2.0,72.0,0.4,2,1.521928499918431,1.6701406999491155,0,3.0354848001152277,3.16874110000208,7,1.616553199943155,1.7951978000346571,,,48.0,51.0,35150,60.0,
77,77,45,2,14,46,2,,,,,,,,,,,session,1202.5052348000463,126.0,2.0,72.0,0.4,5,0.7510354998521507,0.9676853998098522,7,1.0157812000252306,1.2165270999539644,6,2.0378717000130564,2.205955399898812,,,48.0,51.0,35150,60.0,
-77,77,-45,2,15,47,4,,,,,,,,,,,session,1212.1431511000264,180.0,2.0,72.0,0.016202403346907136,4,1.5191630001645535,1.7516815999988467,1,1.6199840002227575,1.9197188999969512,0,0.5140371001325548,0.7306843001861125,,,66.0,69.0,35150,60.0,
77,-77,45,3,0,48,10,,,,,,,,,,,session,1223.2256905999966,174.0,2.0,72.0,0.4,4,2.0843205000273883,2.218006300041452,7,1.9533605000469834,2.220273899845779,6,1.3338309000246227,1.516501900041476,,,60.0,72.0,35150,60.0,
-77,-77,-45,3,1,49,12,,,,,,,,,,,session,1236.141971899895,132.0,2.0,72.0,0.016202403346907136,3,2.9541730999480933,3.1038490999490023,1,1.7925299000926316,1.9794676001183689,0,0.3292712001129985,0.5331794999074191,,,60.0,57.0,35150,60.0,
-77,-77,90,3,2,50,15,,,,,,,,,,,session,1247.3598803998902,138.0,2.0,72.0,0.016202403346907136,5,1.6848306998144835,1.9524844998959452,7,0.4668733000289649,0.6337637999095023,0,1.0181492001283914,1.1847836000379175,,,60.0,66.0,35150,60.0,
-77,77,-45,3,3,51,4,,,,,,,,,,,session,1256.9917166999076,138.0,2.0,72.0,0.016202403346907136,3,1.7974098999984562,1.9640505001880229,7,0.7035572999157012,0.9539003998506814,7,0.011099500115960836,0.013036400079727173,,,66.0,57.0,35150,60.0,
-77,77,0,3,4,52,5,,,,,,,,,,,session,1265.7245569000952,162.0,2.0,72.0,0.016202403346907136,2,1.0466599999926984,1.1641202000901103,0,0.7392957999836653,0.8894648000132293,1,1.681661499897018,1.7807501000352204,,,66.0,66.0,35150,60.0,
-77,77,45,3,5,53,6,,,,,,,,,,,session,1276.4240127000958,150.0,2.0,72.0,0.016202403346907136,4,2.146390200126916,2.2788721001707017,1,1.5565340998582542,1.739933499833569,0,0.9210521001368761,1.1858246000483632,,,63.0,57.0,35150,60.0,
77,-77,-45,3,6,54,8,,,,,,,,,,,session,1287.5818558000028,162.0,2.0,72.0,0.016202403346907136,4,1.6340215001255274,1.867239800048992,1,2.3413647001143545,2.5247055999934673,0,2.3193179999943823,2.6029433000367135,,,60.0,51.0,35150,60.0,
-77,77,90,3,7,55,7,,,,,,,,,,,session,1301.210308900103,132.0,2.0,72.0,0.016202403346907136,5,2.0128768000286072,2.1810473001096398,1,0.7359110999386758,0.9693968000356108,0,0.635370200034231,0.9371893999632448,,,48.0,57.0,35150,60.0,
-77,-77,0,3,8,56,13,,,,,,,,,,,session,1310.6890871000942,156.0,2.0,72.0,0.016202403346907136,3,1.5620265000034124,1.9285674998536706,1,0.7192895000334829,1.089446400059387,0,0.48762020003050566,0.7179127000272274,,,54.0,72.0,35150,60.0,
77,-77,0,3,9,57,9,,,,,,,,,,,session,1321.1231036998797,150.0,2.0,72.0,0.016202403346907136,5,2.17165909986943,2.320988900028169,6,2.4068115998525172,2.489478299859911,0,1.1712823999114335,1.2765697999857366,,,69.0,69.0,35150,60.0,
77,77,0,3,10,58,1,,,,,,,,,,,session,1333.4595739999786,168.0,2.0,72.0,0.4,5,0.8352961998898536,1.0022315999958664,0,0.6465627001598477,0.8157987000886351,7,0.582981999963522,0.765461000148207,,,72.0,48.0,35150,60.0,
-77,-77,45,3,11,59,14,,,,,,,,,,,session,1342.7410011000466,138.0,2.0,72.0,0.4,3,0.8864690999034792,1.0364353000186384,7,0.9202912000473589,1.120454499963671,7,0.5348528998438269,0.7511080999393016,,,60.0,51.0,35150,60.0,
-77,-77,45,3,11,59,14,,,materials/instructions\12_break.png,1351.280298900092,1381.889674700098,0,30.47035890002735,30.607212800066918,0.018126599956303835,30.61397509998642,,,,,,,,,,,,,,,,,,,,35150,60.0,
77,-77,90,3,12,60,11,,,,,,,,,,,session,1381.9047824998852,174.0,2.0,72.0,0.016202403346907136,5,1.4500442000571638,1.6345375999808311,1,0.7992491000331938,1.0492960999254137,0,0.4184840000234544,0.7687812999356538,,,54.0,69.0,35150,60.0,
77,77,90,3,13,61,3,,,,,,,,,,,session,1391.743966100039,150.0,2.0,72.0,0.016202403346907136,5,1.4864788998384029,1.835996099980548,6,0.30966090015135705,0.5265114000067115,0,0.5379673999268562,0.7097813000436872,,,48.0,48.0,35150,60.0,
77,77,-45,3,14,62,0,,,,,,,,,,,session,1400.4102954999544,168.0,2.0,72.0,0.016202403346907136,5,0.9172535999678075,1.0849220000673085,1,0.7821698999032378,0.9654824999161065,0,0.3794072000309825,0.5474648999515921,,,48.0,51.0,35150,60.0,
77,77,45,3,15,63,2,,,,,,,,,,,session,1409.1739781999495,174.0,2.0,72.0,0.4,5,0.8353144999127835,1.0698799998499453,7,1.0902939999941736,1.3390722000040114,6,0.679574100067839,0.8650531000457704,,,72.0,66.0,35150,60.0,
77,-77,45,4,0,64,10,,,,,,,,,,,session,1419.0835138999391,162.0,2.0,72.0,0.4,4,0.29417290003038943,0.42786749987863004,7,0.7218192999716848,0.9553773000370711,6,1.9463158999569714,2.0336061001289636,,,51.0,63.0,35150,60.0,
-77,-77,0,4,1,65,13,,,,,,,,,,,session,1429.0623782998882,180.0,2.0,72.0,0.4,3,0.35046390001662076,0.5005738001782447,0,0.6390017000958323,0.855918199988082,7,3.003813400166109,3.1540367000270635,,,48.0,57.0,35150,60.0,
-77,77,90,4,2,66,7,,,,,,,,,,,session,1439.7821295000613,126.0,2.0,72.0,0.016202403346907136,3,2.102198699954897,2.2688742999453098,1,0.6183152999728918,0.785177499987185,0,1.0023272999096662,1.319061400135979,,,63.0,63.0,35150,60.0,
77,77,0,4,3,67,1,,,,,,,,,,,session,1449.8573044999503,144.0,2.0,72.0,0.016202403346907136,5,1.2036546000745147,1.4538346000481397,1,0.8579336998518556,1.1412204999942333,0,0.6835090999957174,0.9013674999587238,,,69.0,60.0,35150,60.0,
-77,-77,-45,4,4,68,12,,,,,,,,,,,session,1459.3471671000589,138.0,2.0,72.0,0.016202403346907136,5,2.343806999968365,2.5076898999977857,7,1.8527272001374513,2.067451300099492,0,0.9817483001388609,1.3312023000326008,,,48.0,69.0,35150,60.0,
77,-77,90,4,5,69,11,,,,,,,,,,,session,1470.9584091000725,138.0,2.0,72.0,0.4,4,0.5000049001537263,0.7159920001868159,6,1.0375399999320507,1.2367751998826861,7,0.48736169980838895,0.6873371999245137,,,51.0,60.0,35150,60.0,
77,77,45,4,6,70,2,,,,,,,,,,,session,1479.1939363998827,168.0,2.0,72.0,0.016202403346907136,5,2.528867300134152,2.6972444001585245,1,0.795581600163132,1.0308793000876904,0,1.2185422000475228,1.5185806001536548,,,48.0,54.0,35150,60.0,
77,77,90,4,7,71,3,,,,,,,,,,,session,1490.4118975000456,144.0,2.0,72.0,0.016202403346907136,5,3.139447099994868,3.2551230997778475,1,0.7367581999860704,0.88582309987396,0,0.8538331999443471,1.1028934000059962,,,57.0,63.0,35150,60.0,
77,-77,0,4,8,72,9,,,,,,,,,,,session,1501.5116208000109,138.0,2.0,72.0,0.016202403346907136,3,1.7036504000425339,1.8704395000822842,7,0.487360900035128,0.687552799936384,0,0.9460810997989029,1.4794162998441607,,,69.0,69.0,35150,60.0,
-77,-77,45,4,9,73,14,,,,,,,,,,,session,1511.5947789000347,180.0,2.0,72.0,0.016202403346907136,5,2.69932879996486,2.8172240999992937,1,0.5184554001316428,0.6695620999671519,0,0.26761009986512363,0.4344346998259425,,,63.0,69.0,35150,60.0,
-77,77,45,4,10,74,6,,,,,,,,,,,session,1522.2772484000307,138.0,2.0,72.0,0.016202403346907136,5,1.2372125000692904,1.3710431000217795,6,0.47578699979931116,0.658403699984774,0,0.8165237000212073,1.033342899987474,,,66.0,63.0,35150,60.0,
77,-77,-45,4,11,75,8,,,,,,,,,,,session,1531.2343216999434,150.0,2.0,72.0,0.016202403346907136,3,2.1975922000128776,2.365201000124216,7,0.8326332999859005,1.0494267998728901,0,1.4327336000278592,1.6815305000636727,,,60.0,54.0,35150,60.0,
-77,77,0,4,12,76,5,,,,,,,,,,,session,1542.760658300016,168.0,2.0,72.0,0.016202403346907136,4,1.3599545999895781,1.5935170999728143,1,0.938791599823162,1.1560898998286575,0,1.8174541001208127,2.0436438999604434,,,63.0,63.0,35150,60.0,
77,77,-45,4,13,77,0,,,,,,,,,,,session,1553.9112378000282,162.0,2.0,72.0,0.016202403346907136,4,1.9445876001846045,2.1763266001362354,1,1.3535029999911785,1.5701633000280708,0,0.6523951000999659,0.8690764000639319,,,69.0,57.0,35150,60.0,
-77,-77,90,4,14,78,15,,,,,,,,,,,session,1565.378150000004,138.0,2.0,72.0,0.016202403346907136,5,1.319577399874106,1.520708599826321,7,1.08878259989433,1.3418991998769343,0,1.29993910016492,1.666048699989915,,,60.0,69.0,35150,60.0,
-77,77,-45,4,15,79,4,,,,,,,,,,,session,1575.8015334999654,132.0,2.0,72.0,0.016202403346907136,2,2.8820110999513417,2.9820773999672383,6,0.7170925999525934,0.8672324998769909,0,0.6477845998015255,0.7978514998685569,,,63.0,66.0,35150,60.0,
-77,77,-45,4,15,79,4,,,materials/instructions\12_break.png,1586.871499599889,1608.8410036000423,0,21.817366200033575,21.967396000167355,0.022814600029960275,21.975254100048915,,,,,,,,,,,,,,,,,,,,35150,60.0,
-77,-77,90,5,0,80,15,,,,,,,,,,,session,1608.8567641999107,150.0,2.0,72.0,0.016202403346907136,2,2.7996061998419464,3.0163073998410255,1,0.737468299921602,0.9885770999826491,0,0.6038646998349577,0.7601107999216765,,,72.0,72.0,35150,60.0,
77,-77,0,5,1,81,9,,,,,,,,,,,session,1619.978293800028,162.0,2.0,72.0,0.016202403346907136,4,1.2449444001540542,1.4784785001538694,0,1.0178847999777645,1.3363751000724733,1,0.54882079991512,0.7499832001049072,,,69.0,60.0,35150,60.0,
77,77,90,5,2,82,3,,,,,,,,,,,session,1630.4450966999866,132.0,2.0,72.0,0.016202403346907136,5,1.5376031999476254,1.7212627998087555,7,0.5171570000238717,0.7171182001475245,0,0.364751499844715,0.5815264999400824,,,63.0,72.0,35150,60.0,
-77,-77,0,5,3,83,13,,,,,,,,,,,session,1639.3668017999735,138.0,2.0,72.0,0.016202403346907136,3,2.195597200188786,2.412021700059995,6,1.8216568999923766,2.004302999936044,0,0.8204708001576364,1.0191388002131134,,,51.0,63.0,35150,60.0,
77,77,0,5,4,84,1,,,,,,,,,,,session,1650.6764132000972,144.0,2.0,72.0,0.4,5,1.1191243999637663,1.285914700012654,0,0.4372707998845726,0.6370480000041425,6,0.4025632000993937,0.5881622000597417,,,66.0,63.0,35150,60.0,
77,-77,45,5,5,85,10,,,,,,,,,,,session,1659.1841426000465,150.0,2.0,72.0,0.4,4,0.2832895000465214,0.4335291001480073,7,2.0306979999877512,2.319029799895361,6,0.9820753999520093,1.1850688001140952,,,54.0,69.0,35150,60.0,
77,-77,90,5,6,86,11,,,,,,,,,,,session,1669.112013499951,138.0,2.0,72.0,0.4,4,0.4821798000484705,0.6659915000200272,6,1.7379699999000877,1.9056208999827504,7,2.4552698999177665,2.738677900051698,,,63.0,54.0,35150,60.0,
-77,77,0,5,7,87,5,,,,,,,,,,,session,1680.1499356999993,168.0,2.0,72.0,0.016202403346907136,3,2.6238047999795526,2.8808641999494284,1,1.354130299994722,1.6509757998865098,0,1.2822616000194103,1.766802900005132,,,51.0,48.0,35150,60.0,
77,77,45,5,8,88,2,,,,,,,,,,,session,1692.3615099999588,162.0,2.0,72.0,0.4,5,0.8722953998949379,1.0056533999741077,7,0.6938739998731762,0.8932497000787407,6,1.0899755000136793,1.323878200026229,,,51.0,66.0,35150,60.0,
77,-77,-45,5,9,89,8,,,,,,,,,,,session,1701.6821069000289,126.0,2.0,72.0,0.016202403346907136,4,0.9039788998197764,1.0862674999516457,6,1.8350801998749375,2.049899799982086,0,0.44703550008125603,0.5825840001925826,,,60.0,57.0,35150,60.0,
-77,77,-45,5,10,90,4,,,,,,,,,,,session,1710.8966031998862,150.0,2.0,72.0,0.016202403346907136,3,0.8523882001172751,0.9856631001457572,1,0.7997781001031399,0.999755600001663,0,1.5335357999429107,1.8332034000195563,,,51.0,51.0,35150,60.0,
-77,-77,45,5,11,91,14,,,,,,,,,,,session,1720.378593399888,162.0,2.0,72.0,0.016202403346907136,5,1.9327000000048429,2.031406900146976,0,0.7061803999822587,0.9915922000072896,0,0.5194806999061257,0.7375211999751627,,,51.0,69.0,35150,60.0,
77,77,-45,5,12,92,0,,,,,,,,,,,session,1730.2881167999003,162.0,2.0,72.0,0.016202403346907136,3,2.088643900118768,2.258536000037566,1,1.7731230999343097,2.005192499840632,0,0.7679624001029879,1.0512255001813173,,,51.0,60.0,35150,60.0,
-77,77,90,5,13,93,7,,,,,,,,,,,session,1741.6266952999867,180.0,2.0,72.0,0.016202403346907136,2,3.4993926000315696,3.8833436998538673,1,0.40395049983635545,0.5875016998033971,0,0.35096840001642704,0.520471700001508,,,72.0,57.0,35150,60.0,
-77,77,45,5,14,94,6,,,,,,,,,,,session,1753.1719835000113,132.0,2.0,72.0,0.016202403346907136,3,1.402890000026673,1.5514481998980045,0,1.8364348001778126,2.0898090000264347,0,0.8330284999683499,1.0508193999994546,,,72.0,48.0,35150,60.0,
-77,-77,-45,5,15,95,12,,,,,,,,,,,session,1763.4814651999623,150.0,2.0,72.0,0.016202403346907136,4,1.6757853000890464,1.827934900065884,7,1.7600241999607533,1.9424258000217378,0,0.8221881000790745,1.055596400052309,,,51.0,54.0,35150,60.0,
-77,-77,90,6,0,96,15,,,,,,,,,,,session,1773.9695669999346,138.0,2.0,72.0,0.016202403346907136,3,0.45140230003744364,0.5979273000266403,6,0.6042726000305265,0.7709003000054508,6,1.3113158999476582,1.5769837000407279,,,51.0,69.0,35150,60.0,
-77,-77,45,6,1,97,14,,,,,,,,,,,session,1783.17858409998,174.0,2.0,72.0,0.016202403346907136,4,1.3886579000391066,1.5857800000812858,1,1.4234574001748115,1.7071319001261145,0,2.5563850000035018,2.7392421001568437,,,54.0,51.0,35150,60.0,
77,-77,0,6,2,98,9,,,,,,,,,,,session,1795.3061170000583,174.0,2.0,72.0,0.016202403346907136,3,1.547100800089538,1.6970947000663728,0,0.917242499999702,1.150427999906242,0,1.8670916999690235,2.084889499936253,,,69.0,60.0,35150,60.0,
77,-77,45,6,3,99,10,,,,,,,,,,,session,1807.3302392000332,156.0,2.0,72.0,0.016202403346907136,5,1.6728153000585735,1.9063043999485672,6,0.7927814000286162,0.9929439001716673,0,0.33979009999893606,0.5391292998101562,,,63.0,72.0,35150,60.0,
77,-77,45,6,3,99,10,,,materials/instructions\12_break.png,1817.077941800002,1826.8607516000047,0,9.663233599858359,9.779943799832836,0.010133400093764067,9.78747919993475,,,,,,,,,,,,,,,,,,,,35150,60.0,
77,-77,90,6,4,100,11,,,,,,,,,,,session,1826.8756192999426,150.0,2.0,72.0,0.016202403346907136,4,1.5950647999998182,1.795575600117445,0,0.6218763999640942,1.0889546000398695,0,1.0356811999808997,1.2360950999427587,,,48.0,60.0,35150,60.0,
-77,77,0,6,5,101,5,,,,,,,,,,,session,1836.7532738000154,168.0,2.0,72.0,0.016202403346907136,5,1.7739103001076728,1.9744863999076188,6,1.2369887998793274,1.7559688999317586,0,0.6371428999118507,0.8870896999724209,,,66.0,69.0,35150,60.0,
77,-77,-45,6,6,102,8,,,,,,,,,,,session,1847.8950010000262,180.0,2.0,72.0,0.016202403346907136,3,4.453055099816993,4.653026199899614,1,0.3371112998574972,0.5513082998804748,0,0.8056445000693202,1.0058978002052754,,,72.0,69.0,35150,60.0,
77,77,90,6,7,103,3,,,,,,,,,,,session,1860.8851509001106,150.0,2.0,72.0,0.4,5,0.9745328999124467,1.1286558997817338,6,0.8183977999724448,0.9359464000444859,6,2.736056099878624,2.819955199956894,,,54.0,51.0,35150,60.0,
-77,77,-45,6,8,104,4,,,,,,,,,,,session,1871.8972380999476,126.0,2.0,72.0,0.016202403346907136,2,1.795052699977532,1.9453923001419753,1,0.6197568001225591,0.8035244999919087,0,0.5548915998078883,0.805962499929592,,,57.0,63.0,35150,60.0,
77,77,0,6,9,105,1,,,,,,,,,,,session,1881.0009465999901,180.0,2.0,72.0,0.016202403346907136,3,0.9394296000245959,1.08937649987638,1,0.8800911998841912,1.0654770999681205,0,0.7979768000077456,1.0146699999459088,,,60.0,60.0,35150,60.0,
-77,77,90,6,10,106,7,,,,,,,,,,,session,1890.6482603000477,168.0,2.0,72.0,0.016202403346907136,4,1.489468399900943,1.6715506999753416,6,0.7699738000519574,1.07021540007554,0,1.0509039000608027,1.3015847001224756,,,54.0,48.0,35150,60.0,
-77,77,45,6,11,107,6,,,,,,,,,,,session,1900.6492949998938,156.0,2.0,72.0,0.016202403346907136,4,1.6930468999780715,1.8434454998932779,0,0.6803633000236005,1.047110800165683,0,1.1316500999964774,1.3783891000784934,,,48.0,60.0,35150,60.0,
-77,-77,-45,6,12,108,12,,,,,,,,,,,session,1910.829052499961,138.0,2.0,72.0,0.016202403346907136,3,2.772968800039962,2.9718499002046883,6,0.38771599996834993,0.5894934998359531,0,1.3751847001258284,1.6400560999754816,,,72.0,54.0,35150,60.0,
77,77,45,6,13,109,2,,,,,,,,,,,session,1921.8801531998906,144.0,2.0,72.0,0.016202403346907136,5,2.8366574000101537,3.0868718000128865,7,0.36339939991012216,0.6303187999874353,0,0.9686614000238478,1.9854725999757648,,,48.0,66.0,35150,60.0,
-77,-77,0,6,14,110,13,,,,,,,,,,,session,1933.3494468000717,132.0,2.0,72.0,0.016202403346907136,4,1.6905352000612766,1.8572629000991583,6,0.4194702999666333,0.619651900138706,0,0.6375095001421869,0.8875896001700312,,,72.0,51.0,35150,60.0,
77,77,-45,6,15,111,0,,,,,,,,,,,session,1942.432001200039,144.0,2.0,72.0,0.016202403346907136,2,2.237407499924302,2.4845787999220192,0,0.5867476998828351,0.9035426999907941,0,0.6107997000217438,1.1432118001393974,,,60.0,48.0,35150,60.0,
77,77,45,7,0,112,2,,,,,,,,,,,session,1952.6097440999001,132.0,2.0,72.0,0.016202403346907136,4,2.667475000023842,2.8338127001188695,6,1.5727524000685662,1.7398236999288201,0,0.5827552999835461,0.8661593000870198,,,63.0,72.0,35150,60.0,
77,-77,90,7,1,113,11,,,,,,,,,,,session,1964.2974213000853,132.0,2.0,72.0,0.016202403346907136,4,1.955060100182891,2.0217718000058085,6,1.3389304999727756,1.4238302998710424,0,0.23625459987670183,0.35416919994167984,,,60.0,54.0,35150,60.0,
77,-77,45,7,2,114,10,,,,,,,,,,,session,1973.640839499887,174.0,2.0,72.0,0.016202403346907136,3,1.3373242001980543,1.5872474000789225,1,0.8179514999501407,1.0180878001265228,0,0.6024172999896109,0.8025410999543965,,,54.0,54.0,35150,60.0,
-77,-77,45,7,3,115,14,,,,,,,,,,,session,1983.7827176998835,168.0,2.0,72.0,0.016202403346907136,5,0.6003260998986661,0.8007064999546856,1,0.7216696999967098,0.888465799856931,0,0.8219889998435974,1.085838999832049,,,69.0,54.0,35150,60.0,
77,77,0,7,4,116,1,,,,,,,,,,,session,1992.8531744999345,150.0,2.0,72.0,0.4,5,2.027526899939403,2.1610228000208735,0,0.9851513998582959,1.2030066000297666,6,2.321192700183019,2.5380242001265287,,,57.0,51.0,35150,60.0,
77,-77,-45,7,5,117,8,,,,,,,,,,,session,2004.8489715000615,132.0,2.0,72.0,0.016202403346907136,3,0.7661190000362694,0.9996740999631584,0,0.7185893999412656,0.985393000068143,0,1.184451000066474,1.4520145999267697,,,51.0,69.0,35150,60.0,
77,77,-45,7,6,118,0,,,,,,,,,,,session,2013.9361664999742,174.0,2.0,72.0,0.016202403346907136,4,1.4674982000142336,2.517677400028333,1,0.7189257999416441,0.9688105001114309,0,1.5571779001038522,1.7565919000189751,,,66.0,69.0,35150,60.0,
-77,77,0,7,7,119,5,,,,,,,,,,,session,2025.933245100081,144.0,2.0,72.0,0.4,2,0.3167198000010103,0.4658947999123484,0,0.8080488999839872,1.0899349001701921,0,0.6976099000312388,1.0312797001097351,,,63.0,66.0,35150,60.0,
-77,77,0,7,7,119,5,,,materials/instructions\12_break.png,2034.5617913000751,2056.0818847001065,0,21.20099460007623,21.51793730002828,0.023995100054889917,21.52544209989719,,,,,,,,,,,,,,,,,,,,35150,60.0,
77,77,90,7,8,120,3,,,,,,,,,,,session,2056.097059600055,156.0,2.0,72.0,0.016202403346907136,3,1.589494600193575,1.7395087000913918,1,0.6334655999671668,0.8121277000755072,0,1.5630358001217246,1.7633913999889046,,,63.0,66.0,35150,60.0,
-77,-77,90,7,9,121,15,,,,,,,,,,,session,2066.663776200032,168.0,2.0,72.0,0.016202403346907136,3,0.5978101999498904,0.7507898998446763,6,0.6195183999370784,0.8030736998189241,0,0.9882081998512149,1.1204411999788135,,,48.0,66.0,35150,60.0,
-77,-77,0,7,10,122,13,,,,,,,,,,,session,2075.500947699882,174.0,2.0,72.0,0.016202403346907136,3,1.4995740000158548,1.6663142999168485,1,1.5914182998239994,1.7237752999644727,0,0.36088580009527504,0.5158275000285357,,,57.0,72.0,35150,60.0,
77,-77,0,7,11,123,9,,,,,,,,,,,session,2085.9163699001074,174.0,2.0,72.0,0.4,4,0.28662859997712076,0.45323510002344847,0,0.3534814000595361,0.5537642000708729,1,1.0198795998003334,1.2009801999665797,,,69.0,57.0,35150,60.0,
-77,77,90,7,12,124,7,,,,,,,,,,,session,2094.7322430999484,180.0,2.0,72.0,0.016202403346907136,5,1.71843870007433,1.8509549000300467,7,0.5266523000318557,0.6764998000580817,0,0.3380863999482244,0.5379508000332862,,,51.0,72.0,35150,60.0,
-77,77,45,7,13,125,6,,,,,,,,,,,session,2104.2883240999654,132.0,2.0,72.0,0.016202403346907136,4,1.7477194000966847,1.931768500013277,1,2.3394985001068562,2.507460900116712,0,0.3378381999209523,0.6557789999060333,,,72.0,72.0,35150,60.0,
-77,-77,-45,7,14,126,12,,,,,,,,,,,session,2116.0824315999635,174.0,2.0,72.0,0.016202403346907136,3,2.680818600114435,2.8141737999394536,1,0.651355299865827,0.8358400000724941,0,1.6118946000933647,2.111985200084746,,,57.0,66.0,35150,60.0,
-77,77,-45,7,15,127,4,,,,,,,,,,,session,2128.256743500009,138.0,2.0,72.0,0.016202403346907136,4,0.6278689000755548,0.7944294000044465,1,0.6389398998580873,0.8389287998434156,0,0.7167886001989245,0.9681058002170175,,,48.0,48.0,35150,60.0,
-77,77,45,8,0,128,6,,,,,,,,,,,session,2136.7330549000762,180.0,2.0,72.0,0.016202403346907136,5,1.7706265999004245,1.8886218001134694,6,0.4719261000864208,0.6220375001430511,0,0.6215564999729395,0.8880634000524879,,,51.0,69.0,35150,60.0,
77,77,90,8,1,129,3,,,,,,,,,,,session,2146.5719131000806,144.0,2.0,72.0,0.016202403346907136,5,2.3365943001117557,2.4866889000404626,1,1.1374003000091761,1.5064262000378221,0,0.7490029998589307,1.0690379999578,,,69.0,54.0,35150,60.0,
-77,77,90,8,2,130,7,,,,,,,,,,,session,2157.5686462000012,162.0,2.0,72.0,0.016202403346907136,5,1.0447299000807106,1.2616101999301463,0,0.2212799999397248,0.6048409999348223,0,0.3877661998849362,0.66992749995552,,,51.0,57.0,35150,60.0,
77,77,45,8,3,131,2,,,,,,,,,,,session,2166.068106800085,156.0,2.0,72.0,0.016202403346907136,2,1.636196699924767,1.8697363000828773,1,0.4331561999861151,0.6666554999537766,0,0.8828471000306308,1.1369852998759598,,,66.0,51.0,35150,60.0,
-77,-77,45,8,4,132,14,,,,,,,,,,,session,2175.7515165000223,180.0,2.0,72.0,0.016202403346907136,4,1.2508084001019597,1.5322402000892907,0,1.0372553998604417,1.304106199881062,0,1.6538600998464972,2.203234899789095,,,69.0,60.0,35150,60.0,
-77,77,-45,8,5,133,4,,,,,,,,,,,session,2187.401694,162.0,2.0,72.0,0.016202403346907136,4,2.1015769001096487,2.269417400006205,1,1.3681991000194103,1.5683269000146538,0,0.908680000109598,1.1759791001677513,,,63.0,72.0,35150,60.0,
77,-77,45,8,6,134,10,,,,,,,,,,,session,2198.831571100047,156.0,2.0,72.0,0.016202403346907136,5,0.6422887002117932,0.824433300178498,6,0.2864621998742223,0.48733059992082417,0,0.3383424000348896,0.5385211000684649,,,72.0,69.0,35150,60.0,
77,-77,90,8,7,135,11,,,,,,,,,,,session,2207.1000238000415,162.0,2.0,72.0,0.016202403346907136,2,1.3342897000256926,1.5165977000724524,1,0.4210488998796791,0.5711525999940932,0,0.5057117999531329,0.7224815001245588,,,63.0,57.0,35150,60.0,
77,77,0,8,8,136,1,,,,,,,,,,,session,2216.07453299989,144.0,2.0,72.0,0.016202403346907136,2,2.4103075000457466,2.6269724001176655,0,0.2178281000815332,0.4357168001588434,0,1.5366507999133319,1.6867692999076098,,,69.0,54.0,35150,60.0,
77,-77,-45,8,9,137,8,,,,,,,,,,,session,2227.368725999957,132.0,2.0,72.0,0.016202403346907136,4,2.3880676000844687,2.5385563001036644,1,1.2735592999961227,1.4250476001761854,0,1.1363695999607444,1.353055200073868,,,66.0,51.0,35150,60.0,
77,-77,0,8,10,138,9,,,,,,,,,,,session,2238.273178699892,180.0,2.0,72.0,0.016202403346907136,5,3.01726989983581,3.2181638998445123,7,0.5388177998829633,0.7237503998912871,0,0.7494447999633849,0.9493706000503153,,,69.0,57.0,35150,60.0,
-77,-77,0,8,11,139,13,,,,,,,,,,,session,2250.2826791000552,162.0,2.0,72.0,0.016202403346907136,4,1.2192416000179946,1.4364563000854105,0,0.22423709998838603,0.4923918000422418,0,0.6331545000430197,0.9167273999191821,,,51.0,51.0,35150,60.0,
-77,-77,0,8,11,139,13,,,materials/instructions\12_break.png,2258.9866555999033,2293.314060699893,0,34.14195550000295,34.32535329996608,0.021053799893707037,34.33313919999637,,,,,,,,,,,,,,,,,,,,35150,60.0,
-77,-77,90,8,12,140,15,,,,,,,,,,,session,2293.3299956999253,150.0,2.0,72.0,0.4,3,0.3630300001241267,0.49330680002458394,6,1.1405160001013428,1.3404883001931012,7,0.28981880005449057,0.38769769994542,,,60.0,48.0,35150,60.0,
-77,-77,-45,8,13,141,12,,,,,,,,,,,session,2301.3069597999565,174.0,2.0,72.0,0.016202403346907136,4,1.3266247999854386,1.4805346000939608,1,0.011291800066828728,0.013191099977120757,0,0.46752900001592934,0.7153392999898642,,,66.0,63.0,35150,60.0,
-77,77,0,8,14,142,5,,,,,,,,,,,session,2310.081111199921,174.0,2.0,72.0,0.016202403346907136,3,1.3438937000464648,1.4785305999685079,1,0.6851113999728113,0.8697234001010656,0,0.5814218001905829,0.7650858000852168,,,72.0,60.0,35150,60.0,
77,77,-45,8,15,143,0,,,,,,,,,,,session,2319.7534248998854,168.0,2.0,72.0,0.4,5,0.3334055000450462,0.500159899936989,7,1.5641312000807375,1.7305823999922723,0,0.7645926000550389,0.9856575999874622,,,72.0,66.0,35150,60.0,
-77,-77,90,9,0,144,15,,,,,,,,,,,session,2329.5186042001005,144.0,2.0,72.0,0.4,3,0.28471980011090636,0.40132610010914505,6,0.3569112999830395,0.4710238000843674,7,0.28328859992325306,0.4344275000039488,,,72.0,54.0,35150,60.0,
77,77,90,9,1,145,3,,,,,,,,,,,session,2336.8188050999306,132.0,2.0,72.0,0.016202403346907136,3,1.3494140999391675,1.5662169000133872,6,0.3244820998515934,0.5246856000740081,0,0.3033167999237776,0.5210633999668062,,,63.0,63.0,35150,60.0,
-77,77,-45,9,2,146,4,,,,,,,,,,,session,2345.1736500000115,168.0,2.0,72.0,0.4,2,1.3062871999572963,1.4614648998249322,1,2.552208100212738,2.7357880000490695,6,0.534080500015989,0.636337999952957,,,51.0,66.0,35150,60.0,
-77,77,45,9,3,147,6,,,,,,,,,,,session,2356.201026200084,150.0,2.0,72.0,0.016202403346907136,2,1.3519552000798285,1.468556199921295,0,0.3048278000205755,0.4238018998876214,0,0.09696269989944994,0.2669287999160588,,,48.0,72.0,35150,60.0,
77,-77,0,9,4,148,9,,,,,,,,,,,session,2364.305557399988,132.0,2.0,72.0,0.016202403346907136,5,1.0053217001259327,1.252396299969405,7,0.5488742000889033,0.7831816000398248,0,0.42762530012987554,0.6059998001437634,,,72.0,72.0,35150,60.0,
77,77,45,9,5,149,2,,,,,,,,,,,session,2372.9973269999027,168.0,2.0,72.0,0.016202403346907136,4,0.7836345999967307,0.9835488998796791,6,2.254513399908319,2.571466299938038,0,1.5898633000906557,1.7230807999148965,,,54.0,51.0,35150,60.0,
-77,-77,-45,9,6,150,12,,,,,,,,,,,session,2384.502810599981,132.0,2.0,72.0,0.016202403346907136,4,1.4857745000626892,1.6530965000856668,1,1.108600600156933,1.4262176000047475,0,0.9707433001603931,1.5930486000142992,,,48.0,69.0,35150,60.0,
77,77,-45,9,7,151,0,,,,,,,,,,,session,2394.7680216999725,156.0,2.0,72.0,0.016202403346907136,5,0.9515498001128435,1.1346800001338124,6,2.1481314001139253,2.282381600001827,0,1.0648206998594105,1.2649854000192136,,,57.0,63.0,35150,60.0,
-77,-77,0,9,8,152,13,,,,,,,,,,,session,2405.7682125000283,138.0,2.0,72.0,0.016202403346907136,4,1.3007814998272806,1.5009727999567986,1,0.9082624998409301,1.143730899784714,0,0.5531935000326484,0.7855320000089705,,,72.0,66.0,35150,60.0,
-77,77,0,9,9,153,5,,,,,,,,,,,session,2415.2413216999266,126.0,2.0,72.0,0.016202403346907136,3,1.8471534000709653,1.9971322000492364,6,1.5538846999406815,1.7239311998710036,0,1.0151647999882698,1.3334492999128997,,,69.0,57.0,35150,60.0,
-77,-77,45,9,10,154,14,,,,,,,,,,,session,2426.536250999896,162.0,2.0,72.0,0.4,3,0.5926989000290632,0.7260821000672877,7,2.1253239000216126,2.2739872001111507,7,0.40386149985715747,0.5205335000064224,,,63.0,51.0,35150,60.0,
-77,77,90,9,11,155,7,,,,,,,,,,,session,2436.1081550000235,168.0,2.0,72.0,0.016202403346907136,5,1.2430936999153346,1.4123537000268698,7,1.2866909999866039,1.5370678000617772,0,0.01107820007018745,0.012873100116848946,,,54.0,69.0,35150,60.0,
77,-77,90,9,12,156,11,,,,,,,,,,,session,2445.9420382999815,162.0,2.0,72.0,0.4,4,1.8911545001901686,2.0417992000002414,6,1.1736029998864979,1.3064263998530805,6,0.4502673000097275,0.6337575998622924,,,60.0,51.0,35150,60.0,
77,77,0,9,13,157,1,,,,,,,,,,,session,2455.924952500034,138.0,2.0,72.0,0.4,5,0.354622800135985,0.47041209996677935,0,0.4145915999542922,0.5469490000978112,7,2.3603966999799013,2.4979522000066936,,,48.0,69.0,35150,60.0,
77,-77,45,9,14,158,10,,,,,,,,,,,session,2465.12142900005,126.0,2.0,72.0,0.016202403346907136,3,3.4753898000344634,3.608249800046906,1,1.0890995999798179,1.23950309981592,0,1.0044570001773536,1.170256800018251,,,63.0,51.0,35150,60.0,
77,-77,-45,9,15,159,8,,,,,,,,,,,session,2476.588568799896,162.0,2.0,72.0,0.016202403346907136,4,1.852924499893561,2.07054949994199,1,0.8326781000941992,1.078512900043279,0,4.42549329996109,4.625447399914265,,,48.0,57.0,35150,60.0,
77,-77,-45,9,15,159,8,,,materials/instructions\12_break.png,2490.3187523998786,2506.227435000008,0,15.79424349986948,15.906689299969003,0.016310700215399265,15.918836300028488,,,,,,,,,,,,,,,,,,,,35150,60.0,
-77,-77,45,10,0,160,14,,,,,,,,,,,session,2506.248023400083,174.0,2.0,72.0,0.016202403346907136,4,1.1643318999558687,1.2817887000273913,1,2.555328099988401,2.774260900216177,0,1.9890340000856668,2.186102099949494,,,57.0,51.0,35150,60.0,
77,-77,-45,10,1,161,8,,,,,,,,,,,session,2518.7043953998946,126.0,2.0,72.0,0.4,4,0.6982168999966234,0.8649585999082774,1,3.177040900103748,3.3938440999481827,0,1.8985381999518722,2.1337465001270175,,,60.0,51.0,35150,60.0,
77,77,0,10,2,162,1,,,,,,,,,,,session,2530.519472700078,138.0,2.0,72.0,0.016202403346907136,4,1.3751825999934226,1.4927600000519305,7,1.6193601998966187,1.7361192998941988,0,4.072069799993187,5.17302339989692,,,69.0,51.0,35150,60.0,
77,-77,0,10,3,163,9,,,,,,,,,,,session,2544.6763428000268,168.0,2.0,72.0,0.016202403346907136,5,3.9289003999438137,4.095370299881324,1,0.4859436000697315,0.6684757000766695,0,4.42174409981817,4.635975799988955,,,63.0,48.0,35150,60.0,
77,77,-45,10,4,164,0,,,,,,,,,,,session,2560.3883726000786,132.0,2.0,72.0,0.016202403346907136,4,1.9047906999476254,2.0392247999552637,1,0.9367186999879777,1.1203482998535037,0,0.7570911999791861,1.0072118998505175,,,66.0,60.0,35150,60.0,
-77,77,0,10,5,165,5,,,,,,,,,,,session,2570.2937545999885,168.0,2.0,72.0,0.016202403346907136,5,1.245805999962613,1.4132131999358535,1,0.586462700041011,0.7697538000065833,0,0.2808062999974936,0.4808833000715822,,,72.0,60.0,35150,60.0,
77,77,90,10,6,166,3,,,,,,,,,,,session,2580.0019314000383,180.0,2.0,72.0,0.016202403346907136,4,0.8825749999377877,1.1343004999216646,0,1.7186404999811202,1.935580699937418,0,0.33456979994662106,0.5344152001198381,,,69.0,66.0,35150,60.0,
-77,-77,90,10,7,167,15,,,,,,,,,,,session,2590.3096330999397,174.0,2.0,72.0,0.4,3,0.9764105000067502,1.1564486999996006,6,1.8575085999909788,1.9230091001372784,6,2.331735899904743,2.431558300042525,,,72.0,57.0,35150,60.0,
-77,77,45,10,8,168,6,,,,,,,,,,,session,2603.036862100009,180.0,2.0,72.0,0.016202403346907136,5,1.1860541000496596,1.3862550999037921,6,0.9842848000116646,1.1830953999888152,0,2.7073967999313027,2.9574031000956893,,,63.0,69.0,35150,60.0,
-77,77,90,10,9,169,7,,,,,,,,,,,session,2615.2036288999952,126.0,2.0,72.0,0.016202403346907136,5,1.091109200147912,1.2409998001530766,6,0.9607140000443906,1.1300047999247909,0,0.4676793999969959,0.6654521999880672,,,54.0,54.0,35150,60.0,
77,-77,45,10,10,170,10,,,,,,,,,,,session,2624.0527761999983,174.0,2.0,72.0,0.4,4,0.2655473998747766,0.39903919980861247,7,1.1925220999401063,1.3603409000206739,6,1.2712771999649704,1.4377168999053538,,,66.0,54.0,35150,60.0,
-77,-77,0,10,11,171,13,,,,,,,,,,,session,2633.592007200001,174.0,2.0,72.0,0.016202403346907136,3,2.36028019990772,2.494757100008428,0,1.5045227999798954,1.60467809997499,1,0.3300914999563247,0.48027499997988343,,,69.0,57.0,35150,60.0,
-77,-77,-45,10,12,172,12,,,,,,,,,,,session,2645.0699843999464,162.0,2.0,72.0,0.016202403346907136,2,2.117422299925238,2.319793399889022,1,0.35474930005148053,0.5215864998754114,0,0.6534709001425654,0.8370334000792354,,,69.0,48.0,35150,60.0,
-77,77,-45,10,13,173,4,,,,,,,,,,,session,2654.841412199894,126.0,2.0,72.0,0.016202403346907136,5,1.3678250000812113,1.5486871001776308,6,0.3177853000815958,0.4509928999468684,0,0.5992705000098795,0.7991814000997692,,,54.0,51.0,35150,60.0,
77,77,45,10,14,174,2,,,,,,,,,,,session,2662.9866410999093,138.0,2.0,72.0,0.016202403346907136,5,2.36851489986293,2.568860299885273,1,1.4729720000177622,1.6874527998734266,0,0.7612922999542207,1.0624905999284238,,,63.0,51.0,35150,60.0,
77,-77,90,10,15,175,11,,,,,,,,,,,session,2673.989501300035,174.0,2.0,72.0,0.4,4,2.7723585998173803,2.9788202999625355,6,4.739743100013584,4.873518200125545,1,0.36502719996497035,0.5312777000945061,,,72.0,63.0,35150,60.0,
-77,-77,-45,11,0,176,12,,,,,,,,,,,session,2688.968658299884,150.0,2.0,72.0,0.016202403346907136,2,0.7987853998783976,1.3333212998695672,1,0.549964299891144,1.117082600016147,0,1.1223432999104261,1.3714304000604898,,,72.0,69.0,35150,60.0,
77,77,-45,11,1,177,0,,,,,,,,,,,session,2699.108344200067,174.0,2.0,72.0,0.4,5,0.48275720002129674,0.6163556000683457,1,1.2042207999620587,1.3176467998418957,1,1.7988731998484582,1.916282899910584,,,63.0,66.0,35150,60.0,
77,77,45,11,2,178,2,,,,,,,,,,,session,2709.6192304000724,174.0,2.0,72.0,0.016202403346907136,2,1.165676300181076,1.315726300003007,1,0.5364526999182999,0.7197284998837858,0,0.5514305999968201,0.785025600111112,,,66.0,63.0,35150,60.0,
-77,-77,45,11,3,179,14,,,,,,,,,,,session,2718.9414512999356,168.0,2.0,72.0,0.016202403346907136,4,1.7865242999978364,1.9532230999320745,1,1.095679400023073,1.283308699959889,0,0.6187915999908,0.7713276001159102,,,69.0,66.0,35150,60.0,
-77,-77,45,11,3,179,14,,,materials/instructions\12_break.png,2729.488684100099,2756.4669335000217,0,26.892711600055918,26.976133699994534,0.015615600161254406,26.984015500172973,,,,,,,,,,,,,,,,,,,,35150,60.0,
-77,77,45,11,4,180,6,,,,,,,,,,,session,2756.4824959000107,162.0,2.0,72.0,0.4,2,0.4604744000826031,0.5771944001317024,7,1.2597167000640184,1.3598027999978513,6,0.7187193999998271,0.8354405998252332,,,63.0,57.0,35150,60.0,
-77,77,90,11,5,181,7,,,,,,,,,,,session,2765.4090299000964,162.0,2.0,72.0,0.016202403346907136,4,1.5358984000049531,1.7147425999864936,1,0.6883739000186324,0.8884422001428902,0,0.9011309000197798,1.1023105001077056,,,63.0,51.0,35150,60.0,
77,-77,45,11,6,182,10,,,,,,,,,,,session,2775.2532643000595,180.0,2.0,72.0,0.016202403346907136,5,1.8143380999099463,1.9644977001007646,0,0.7064676999580115,0.8419595998711884,0,0.2872793998103589,0.43852729978971183,,,63.0,48.0,35150,60.0,
77,77,0,11,7,183,1,,,,,,,,,,,session,2784.791336900089,180.0,2.0,72.0,0.4,5,1.0086299001704901,1.2415720000863075,0,0.9654091999400407,2.0534721000585705,1,8.113665499957278,8.213360300054774,,,66.0,63.0,35150,60.0,
77,77,90,11,8,184,3,,,,,,,,,,,session,2802.905642800033,138.0,2.0,72.0,0.016202403346907136,5,2.7060899001080543,2.8913175999186933,7,0.853496499825269,1.0226771999150515,0,2.1088330999482423,2.3090701999608427,,,66.0,69.0,35150,60.0,
-77,77,0,11,9,185,5,,,,,,,,,,,session,2815.1184117000084,156.0,2.0,72.0,0.016202403346907136,4,5.122234900016338,5.322369700064883,6,1.0899783000349998,1.258189900079742,0,0.605878499802202,0.8060271998401731,,,54.0,48.0,35150,60.0,
-77,-77,90,11,10,186,15,,,,,,,,,,,session,2828.440729300026,126.0,2.0,72.0,0.016202403346907136,4,1.9884145001415163,2.189465400064364,1,0.795761999906972,0.8952933999244124,0,0.9327736999839544,1.0663743999321014,,,48.0,60.0,35150,60.0,
77,-77,-45,11,11,187,8,,,,,,,,,,,session,2837.9562311999034,126.0,2.0,72.0,0.016202403346907136,5,1.5035135999787599,1.7238382999785244,7,0.33613769989460707,0.6064599000383168,0,1.9009714999701828,2.1011914000846446,,,60.0,60.0,35150,60.0,
-77,-77,0,11,12,188,13,,,,,,,,,,,session,2847.9398956000805,174.0,2.0,72.0,0.016202403346907136,4,3.122724999906495,3.29002259997651,6,2.176895699929446,2.2821396000217646,0,0.4974801999051124,0.7644004998728633,,,72.0,54.0,35150,60.0,
-77,77,-45,11,13,189,4,,,,,,,,,,,session,2860.720533600077,132.0,2.0,72.0,0.016202403346907136,4,3.0705118000041693,3.237323399866,0,1.9669323000125587,2.184640899999067,0,2.723673100117594,2.921618500025943,,,60.0,72.0,35150,60.0,
77,-77,0,11,14,190,9,,,,,,,,,,,session,2874.923659800086,138.0,2.0,72.0,0.4,4,2.346390400081873,2.540887099923566,0,0.9351896999869496,1.0689354999922216,1,0.011140800081193447,0.013039899989962578,,,66.0,60.0,35150,60.0,
77,-77,90,11,15,191,11,,,,,,,,,,,session,2884.3818065999076,162.0,2.0,72.0,0.016202403346907136,3,1.315552599960938,1.4990439999382943,1,0.11742749996483326,0.28424479998648167,0,0.2692799000069499,0.4694120001513511,,,72.0,66.0,35150,60.0,
77,-77,0,12,0,192,9,,,,,,,,,,,session,2893.072689499939,150.0,2.0,72.0,0.016202403346907136,4,0.6789059999864548,0.9283010999206454,1,2.523849799996242,2.7877338000107557,0,0.6195947001688182,0.942901800153777,,,66.0,51.0,35150,60.0,
-77,-77,-45,12,1,193,12,,,,,,,,,,,session,2903.640376100084,180.0,2.0,72.0,0.4,5,0.6007854000199586,0.7520663000177592,6,0.012039900058880448,0.37051240005530417,0,2.5195838999934494,2.819164799991995,,,72.0,57.0,35150,60.0,
-77,77,-45,12,2,194,4,,,,,,,,,,,session,2914.3084418000653,180.0,2.0,72.0,0.016202403346907136,3,1.5820729001425207,1.715456600068137,1,1.5882693000603467,1.738354800036177,0,0.8668832001276314,1.083403900032863,,,57.0,48.0,35150,60.0,
-77,77,0,12,3,195,5,,,,,,,,,,,session,2925.023913000012,132.0,2.0,72.0,0.4,2,0.3775120999198407,0.5441755999345332,0,0.749426000053063,0.9806516000535339,6,2.1516185000073165,2.3357322001829743,,,72.0,72.0,35150,60.0,
77,77,90,12,4,196,3,,,,,,,,,,,session,2935.2409584000707,156.0,2.0,72.0,0.016202403346907136,3,0.9217306000646204,1.105110399890691,1,0.7543877002317458,0.9394554002210498,0,1.6058666999451816,1.9061455000191927,,,51.0,63.0,35150,60.0,
-77,77,90,12,5,197,7,,,,,,,,,,,session,2945.1307572999503,138.0,2.0,72.0,0.016202403346907136,5,0.8973294000606984,1.0278583001345396,1,0.7716490000020713,0.9708018000237644,0,0.7620962997898459,0.9793238998390734,,,54.0,72.0,35150,60.0,
-77,-77,90,12,6,198,15,,,,,,,,,,,session,2954.6046237000264,174.0,2.0,72.0,0.016202403346907136,4,0.9536458000075072,1.1715023000724614,1,0.6573320000898093,0.8241358001250774,0,0.1672137000132352,0.4002131000161171,,,51.0,72.0,35150,60.0,
77,77,45,12,7,199,2,,,,,,,,,,,session,2963.393798999954,168.0,2.0,72.0,0.4,5,1.694692200049758,1.8607057998888195,6,0.5237511000595987,0.7030724000651389,0,0.5342863001860678,0.7164498001802713,,,69.0,69.0,35150,60.0,
77,77,45,12,7,199,2,,,materials/instructions\12_break.png,2973.2684186999686,3001.370382499881,0,27.949793299892917,28.09983760002069,0.020983099937438965,28.107625799952075,,,,,,,,,,,,,,,,,,,,35150,60.0,
77,77,-45,12,8,200,0,,,,,,,,,,,session,3001.385973199969,138.0,2.0,72.0,0.4,5,0.863308799918741,0.9634082999546081,1,1.2745449000503868,1.3745746000204235,6,0.7336463001556695,0.8512983000837266,,,63.0,57.0,35150,60.0,
-77,-77,0,12,9,201,13,,,,,,,,,,,session,3010.3139977999963,174.0,2.0,72.0,0.016202403346907136,2,2.006141599966213,2.191900899866596,1,0.9858685999643058,1.2389161998871714,0,0.8498775998596102,1.06736860005185,,,48.0,69.0,35150,60.0,
77,-77,-45,12,10,202,8,,,,,,,,,,,session,3021.738718000008,168.0,2.0,72.0,0.016202403346907136,4,3.6871376000344753,3.8872538001742214,1,1.1727086000610143,1.3070235999766737,0,2.0770055998582393,2.1879533999599516,,,63.0,51.0,35150,60.0,
-77,-77,45,12,11,203,14,,,,,,,,,,,session,3035.269284900045,132.0,2.0,72.0,0.4,3,0.4602745999582112,0.6602815000806004,7,3.074502400122583,3.225344100035727,6,4.25499020004645,4.354967300081626,,,69.0,51.0,35150,60.0,
77,-77,90,12,12,204,11,,,,,,,,,,,session,3049.5425396999344,138.0,2.0,72.0,0.016202403346907136,2,2.1614231998100877,2.31157169979997,1,0.6786726000718772,0.9505015001632273,0,1.6125473000574857,1.7460747000295669,,,72.0,66.0,35150,60.0,
77,-77,45,12,13,205,10,,,,,,,,,,,session,3060.6387968999334,174.0,2.0,72.0,0.016202403346907136,4,1.9123931999783963,2.0959000000730157,1,2.7103450000286102,2.976015300024301,0,2.855067400028929,3.089596200035885,,,57.0,69.0,35150,60.0,
77,77,0,12,14,206,1,,,,,,,,,,,session,3075.246378599899,138.0,2.0,72.0,0.4,5,1.011618500109762,1.2106327000074089,7,3.5006067000795156,3.6684616000857204,1,0.3652524999342859,0.5645974997896701,,,66.0,69.0,35150,60.0,
-77,77,45,12,15,207,6,,,,,,,,,,,session,3086.957419200102,168.0,2.0,72.0,0.4,2,0.5196505000349134,0.7196305000688881,7,1.1439189999364316,1.3263483999762684,6,2.067727900110185,2.3354030998889357,,,57.0,72.0,35150,60.0,
77,-77,90,13,0,208,11,,,,,,,,,,,session,3097.714389800094,174.0,2.0,72.0,0.016202403346907136,4,4.904457200085744,5.104926400119439,1,0.7354168999008834,0.9522845998872072,0,1.063469799933955,1.280589599860832,,,69.0,63.0,35150,60.0,
-77,-77,90,13,1,209,15,,,,,,,,,,,session,3112.023633300094,144.0,2.0,72.0,0.016202403346907136,4,3.456987699959427,3.7566988000180572,6,0.5409351999405771,0.7051122998818755,0,1.1173498001880944,1.228493700036779,,,66.0,51.0,35150,60.0,
-77,77,45,13,2,210,6,,,,,,,,,,,session,3123.503433899954,138.0,2.0,72.0,0.016202403346907136,5,1.2758269999176264,1.4593918998725712,0,0.803534499835223,1.035905399825424,0,0.8054412000346929,0.9880105999764055,,,72.0,54.0,35150,60.0,
-77,-77,45,13,3,211,14,,,,,,,,,,,session,3133.242207400035,168.0,2.0,72.0,0.016202403346907136,3,1.087256500031799,1.2357508998829871,6,0.011475000064820051,0.01339049986563623,0,0.6172205000184476,0.90056880004704,,,63.0,63.0,35150,60.0,
-77,-77,0,13,4,212,13,,,,,,,,,,,session,3141.747149999952,126.0,2.0,72.0,0.016202403346907136,4,1.5303376000374556,1.9680796000175178,6,2.899089900078252,3.3326126001775265,0,2.102720499970019,2.2193493000231683,,,69.0,54.0,35150,60.0,
77,-77,0,13,5,213,9,,,,,,,,,,,session,3154.99425280001,150.0,2.0,72.0,0.4,4,0.01116799982264638,0.013023599982261658,0,1.0381366000510752,1.2383582999464124,6,0.5337803000584245,0.8689180000219494,,,60.0,48.0,35150,60.0,
77,-77,-45,13,6,214,8,,,,,,,,,,,session,3162.8643231999595,132.0,2.0,72.0,0.016202403346907136,3,0.6497192000970244,0.7666253000497818,1,0.34858030010946095,0.481599000049755,0,1.036882699932903,1.3886090000160038,,,54.0,57.0,35150,60.0,
77,77,0,13,7,215,1,,,,,,,,,,,session,3171.0108978000935,156.0,2.0,72.0,0.016202403346907136,5,0.8317400999367237,1.0317846999969333,6,0.5656632999889553,0.6667349999770522,0,0.30129069997929037,0.4523746999911964,,,57.0,57.0,35150,60.0,
77,77,45,13,8,216,2,,,,,,,,,,,session,3179.1258618999273,138.0,2.0,72.0,0.016202403346907136,3,1.37323800008744,1.5232869999017566,1,1.1702088001184165,1.336807700106874,0,1.3218876000028104,1.5920577999204397,,,57.0,69.0,35150,60.0,
-77,-77,-45,13,9,217,12,,,,,,,,,,,session,3189.403540899977,132.0,2.0,72.0,0.016202403346907136,3,3.2650041000451893,3.4158375000115484,1,0.35167629993520677,0.5016489999834448,0,0.44855580013245344,0.6186463001649827,,,72.0,54.0,35150,60.0,
-77,77,90,13,10,218,7,,,,,,,,,,,session,3200.1952847999055,150.0,2.0,72.0,0.016202403346907136,5,2.0538507997989655,2.2537142999935895,6,0.32390409987419844,0.5576775998342782,0,0.3497321999166161,0.6183058999013156,,,60.0,48.0,35150,60.0,
77,77,90,13,11,219,3,,,,,,,,,,,session,3209.382915900089,180.0,2.0,72.0,0.016202403346907136,2,1.280514100100845,1.5137757998891175,1,1.5059858998283744,1.6720659998245537,0,1.4507733001373708,2.084862600080669,,,54.0,72.0,35150,60.0,
77,77,90,13,11,219,3,,,materials/instructions\12_break.png,3221.7558643000666,3240.805428300053,0,18.914015999995172,19.047526800073683,0.019186000106856227,19.055251100100577,,,,,,,,,,,,,,,,,,,,35150,60.0,
-77,77,-45,13,12,220,4,,,,,,,,,,,session,3240.8214024000335,132.0,2.0,72.0,0.016202403346907136,2,1.007846600143239,1.1579911999870092,1,0.5330499999690801,0.6831269999966025,0,0.6522566999774426,0.8689943000208586,,,72.0,66.0,35150,60.0,
77,-77,45,13,13,221,10,,,,,,,,,,,session,3249.5120000001043,180.0,2.0,72.0,0.016202403346907136,5,0.7694538000505418,0.9532945000100881,6,0.563037300016731,0.758101399987936,0,0.6651854999363422,0.8613467998802662,,,69.0,60.0,35150,60.0,
-77,77,0,13,14,222,5,,,,,,,,,,,session,3258.723028900102,138.0,2.0,72.0,0.016202403346907136,3,1.3568581999279559,1.5066150000784546,1,1.600476099876687,1.8180344998836517,0,0.8843571001198143,1.26796430000104,,,72.0,57.0,35150,60.0,
77,77,-45,13,15,223,0,,,,,,,,,,,session,3269.2263956000097,174.0,2.0,72.0,0.016202403346907136,5,2.6189669999293983,2.819265899946913,7,0.40229379991069436,0.6191050000488758,0,4.178448599996045,8.06376039981842,,,63.0,69.0,35150,60.0,
-77,-77,0,14,0,224,13,,,,,,,,,,,session,3287.2772357999347,168.0,2.0,72.0,0.016202403346907136,5,0.8624984000343829,1.1489632001612335,1,0.7769527998752892,1.2080659999046475,0,0.3390679999720305,0.8901060000061989,,,48.0,54.0,35150,60.0,
-77,-77,45,14,1,225,14,,,,,,,,,,,session,3296.4660636000335,162.0,2.0,72.0,0.016202403346907136,4,0.695179000031203,0.8737349000293761,1,1.0236116999294609,1.4209572998806834,0,1.4712705998681486,1.8216637999285012,,,63.0,69.0,35150,60.0,
-77,77,-45,14,2,226,4,,,,,,,,,,,session,3307.2443176999222,132.0,2.0,72.0,0.016202403346907136,4,1.269192200154066,1.4693742999807,1,1.2709458000026643,1.8046548999845982,0,1.0789121000561863,3.9478446000721306,,,69.0,72.0,35150,60.0,
77,77,-45,14,3,227,0,,,,,,,,,,,session,3320.48237089999,150.0,2.0,72.0,0.016202403346907136,3,2.4929763998370618,2.726439299993217,7,0.9668926000595093,1.1493025000672787,0,0.6849674000404775,0.9194279999937862,,,69.0,54.0,35150,60.0,
-77,-77,90,14,4,228,15,,,,,,,,,,,session,3331.874664899893,174.0,2.0,72.0,0.016202403346907136,3,1.5024935998953879,1.7193304998800159,7,7.885892400052398,8.035894100088626,0,0.9795542000792921,1.1833782000467181,,,54.0,63.0,35150,60.0,
77,77,0,14,5,229,1,,,,,,,,,,,session,3349.1240354001056,150.0,2.0,72.0,0.4,3,2.1892389999702573,2.4383390999864787,1,7.412006699945778,7.628791900118813,0,0.48861660016700625,0.6551702001597732,,,66.0,72.0,35150,60.0,
77,-77,0,14,6,230,9,,,,,,,,,,,session,3366.094455299899,180.0,2.0,72.0,0.016202403346907136,5,1.5982063999399543,1.8321831000503153,0,2.066758800065145,2.264549700077623,0,0.33270220016129315,0.01157129998318851,,,72.0,51.0,35150,60.0,
77,-77,90,14,7,231,11,,,,,,,,,,,session,3377.562145499978,162.0,2.0,72.0,0.4,4,0.3432499000336975,0.4599297000095248,7,1.6542321001179516,1.754369799979031,1,0.3014255999587476,0.4181307000108063,,,51.0,72.0,35150,60.0,
-77,-77,-45,14,8,232,12,,,,,,,,,,,session,3386.383012899896,180.0,2.0,72.0,0.016202403346907136,3,0.9826080999337137,1.152027500094846,1,0.25019440008327365,0.3668722999282181,0,0.011088400147855282,0.012977499980479479,,,51.0,54.0,35150,60.0,
77,77,90,14,9,233,3,,,,,,,,,,,session,3394.800851699896,162.0,2.0,72.0,0.016202403346907136,4,0.6209239000454545,0.8527128000278026,6,0.011711200000718236,0.013789699878543615,0,0.011122999945655465,0.013021099846810102,,,51.0,63.0,35150,60.0,
-77,77,0,14,10,234,5,,,,,,,,,,,session,3401.7387224000413,144.0,2.0,72.0,0.4,2,0.4488892999943346,0.5988000000361353,0,0.686114699812606,0.8854504998307675,6,1.117272200062871,1.2835497001651675,,,57.0,69.0,35150,60.0,
-77,77,90,14,11,235,7,,,,,,,,,,,session,3410.4890870000236,162.0,2.0,72.0,0.016202403346907136,3,0.5693293998483568,0.7193507999181747,7,0.011555799981579185,0.013395299902185798,0,0.011199000058695674,0.013110300060361624,,,48.0,60.0,35150,60.0,
77,-77,-45,14,12,236,8,,,,,,,,,,,session,3417.7108616998885,138.0,2.0,72.0,0.016202403346907136,4,0.9045293999370188,1.0713625999633223,7,0.011525899870321155,0.013394200010225177,0,0.010861000046133995,0.012776500079780817,,,63.0,63.0,35150,60.0,
77,77,45,14,13,237,2,,,,,,,,,,,session,3424.650386299938,162.0,2.0,72.0,0.4,5,0.5200154001358896,0.7377200000919402,6,2.7473218000959605,2.814033299917355,0,0.4448144000489265,0.7489992000628263,,,57.0,48.0,35150,60.0,
-77,77,45,14,14,238,6,,,,,,,,,,,session,3434.8458306000102,162.0,2.0,72.0,0.016202403346907136,4,4.467424700036645,4.6344007002189755,1,0.31895410013385117,0.4678933001123369,0,0.08532599988393486,0.2679118998348713,,,57.0,48.0,35150,60.0,
77,-77,45,14,15,239,10,,,,,,,,,,,session,3446.1614427999593,132.0,2.0,72.0,0.016202403346907136,4,0.7343275998719037,0.9355816000606865,7,0.01164519996382296,0.013582299929112196,0,0.011172100203111768,0.013094300171360373,,,51.0,63.0,35150,60.0,
77,-77,45,14,15,239,10,,,materials/instructions\12_break.png,3452.678269499913,3455.035782299936,0,2.192976700142026,2.3553999001160264,0.023684700019657612,2.3675885000266135,,,,,,,,,,,,,,,,,,,,35150,60.0,
-77,-77,90,15,0,240,15,,,,,,,,,,,session,3455.056396600092,168.0,2.0,72.0,0.016202403346907136,3,1.5527502000331879,1.8385892999358475,1,0.01142930006608367,0.08030480006709695,0,0.011103099910542369,0.013283999869599938,,,51.0,54.0,35150,60.0,
77,-77,90,15,1,241,11,,,,,,,,,,,session,3463.3876108000986,180.0,2.0,72.0,0.016202403346907136,4,0.5528738000430167,0.7857508999295533,7,0.011451800120994449,0.013245100155472755,0,0.01134019996970892,0.013210900127887726,,,51.0,69.0,35150,60.0,
-77,77,0,15,2,242,5,,,,,,,,,,,session,3470.6545078000054,126.0,2.0,72.0,0.016202403346907136,3,1.9144534000661224,2.114946600049734,6,0.011449000099673867,0.01328519987873733,0,0.011475600069388747,0.013283800100907683,,,51.0,72.0,35150,60.0,
77,77,90,15,3,243,3,,,,,,,,,,,session,3478.441981300013,150.0,2.0,72.0,0.016202403346907136,2,1.4852259000763297,1.6868660000618547,0,0.011508599855005741,0.013380700023844838,0,0.011581500060856342,0.01347830006852746,,,48.0,57.0,35150,60.0,
77,-77,-45,15,4,244,8,,,,,,,,,,,session,3485.893365399912,138.0,2.0,72.0,0.016202403346907136,2,1.5390080001670867,1.788963400060311,0,0.011597199831157923,0.013605199987068772,0,0.011246300069615245,0.013328100088983774,,,48.0,54.0,35150,60.0,
-77,-77,-45,15,5,245,12,,,,,,,,,,,session,3493.1594259999692,168.0,2.0,72.0,0.016202403346907136,2,0.6510151999536902,0.8345899998676032,1,0.5179485001135617,0.7179775000549853,0,0.012249500025063753,0.014161899918690324,,,48.0,48.0,35150,60.0,
77,-77,45,15,6,246,10,,,,,,,,,,,session,3500.562518999912,156.0,2.0,72.0,0.016202403346907136,4,3.4391169000882655,3.6896019999403507,7,0.011617999989539385,0.051300999941304326,0,0.011115199886262417,0.01312580006197095,,,48.0,54.0,35150,60.0,
-77,77,90,15,7,247,7,,,,,,,,,,,session,3510.1880649998784,150.0,2.0,72.0,0.016202403346907136,5,1.8598614998627454,2.0080668998416513,6,0.011459600180387497,0.01333170011639595,0,1.1860183000098914,0.010998799931257963,,,48.0,63.0,35150,60.0,
-77,-77,0,15,8,248,13,,,,,,,,,,,session,3519.205619999906,180.0,2.0,72.0,0.4,3,0.5845890000928193,0.7177095001097769,0,0.4010099000297487,0.6032259000930935,6,0.4113790998235345,0.5948653998784721,,,60.0,51.0,35150,60.0,
-77,77,-45,15,9,249,4,,,,,,,,,,,session,3528.0102250000928,144.0,2.0,72.0,0.4,2,0.4480896999593824,0.6804742999374866,6,2.389734100084752,2.6065817000344396,6,0.7849873998202384,0.9165838998742402,,,72.0,51.0,35150,60.0,
77,77,0,15,10,250,1,,,,,,,,,,,session,3538.1155214000028,126.0,2.0,72.0,0.016202403346907136,4,3.190666100010276,3.345452999928966,1,0.011542299995198846,0.013448899844661355,0,0.9059363000560552,1.0875691000837833,,,72.0,66.0,35150,60.0,
77,-77,0,15,11,251,9,,,,,,,,,,,session,3548.4129470000044,150.0,2.0,72.0,0.016202403346907136,4,1.1870105001144111,1.320221700007096,1,0.01153869996778667,0.013398899929597974,0,0.01104209991171956,0.012904600007459521,,,72.0,72.0,35150,60.0,
-77,77,45,15,12,252,6,,,,,,,,,,,session,3556.1080946999136,144.0,2.0,72.0,0.4,2,0.5145160001702607,0.6312798999715596,7,0.32042440003715456,0.48631739988923073,6,0.31480829999782145,0.4654999999329448,,,72.0,54.0,35150,60.0,
-77,-77,45,15,13,253,14,,,,,,,,,,,session,3563.651759600034,144.0,2.0,72.0,0.016202403346907136,4,0.47882630000822246,0.7132234999444336,6,0.011563099920749664,0.01345770014449954,0,0.011213599937036633,0.013129099970683455,,,60.0,69.0,35150,60.0,
77,77,45,15,14,254,2,,,,,,,,,,,session,3571.057031400036,162.0,2.0,72.0,0.016202403346907136,3,1.278448199853301,1.4286098999436945,6,0.011600200086832047,0.013481399975717068,0,0.8675406998954713,1.0669897999614477,,,69.0,57.0,35150,60.0,
77,77,-45,15,15,255,0,,,,,,,,,,,session,3579.813828299986,144.0,2.0,72.0,0.016202403346907136,2,2.216901999898255,2.3169718999415636,1,0.011863499879837036,0.013778199907392263,0,0.5570719998795539,0.011093099834397435,,,57.0,66.0,35150,60.0,
-77,-77,0,16,0,256,13,,,,,,,,,,,session,3588.6995111000724,162.0,2.0,72.0,0.016202403346907136,5,1.8176673999987543,1.9354993000160903,7,0.01199649996124208,0.01378889987245202,0,0.011702800169587135,0.013613400049507618,,,54.0,63.0,35150,60.0,
77,-77,-45,16,1,257,8,,,,,,,,,,,session,3596.807724500075,150.0,2.0,72.0,0.016202403346907136,2,2.139917599968612,2.2899198001250625,0,0.01151810004375875,0.013354500057175756,0,0.011667100014165044,0.01361859985627234,,,60.0,66.0,35150,60.0,
77,77,0,16,2,258,1,,,,,,,,,,,session,3605.1731016000267,144.0,2.0,72.0,0.016202403346907136,5,2.2554558000992984,2.4340437001083046,1,0.01142599992454052,0.013326799962669611,0,0.011456199921667576,0.08688039984554052,,,63.0,66.0,35150,60.0,
77,-77,90,16,3,259,11,,,,,,,,,,,session,3613.8269744000863,162.0,2.0,72.0,0.016202403346907136,3,0.5512460998725146,0.7336754999123514,1,0.011586999986320734,0.15357810002751648,0,0.01107660005800426,0.012967600021511316,,,48.0,51.0,35150,60.0,
77,-77,90,16,3,259,11,,,materials/instructions\12_break.png,3620.5398416998796,3622.9959869000595,0,2.284845400135964,2.453795700101182,0.022735699778422713,2.4597654999233782,,,,,,,,,,,,,,,,,,,,35150,60.0,
-77,77,45,16,4,260,6,,,,,,,,,,,session,3623.009725499898,144.0,2.0,72.0,0.016202403346907136,5,1.8517819999251515,2.0018962000031024,7,0.011537800077348948,0.013599400175735354,0,0.011047200066968799,0.012947800103574991,,,48.0,48.0,35150,60.0,
-77,-77,45,16,5,261,14,,,,,,,,,,,session,3630.491327600088,162.0,2.0,72.0,0.016202403346907136,3,0.84256980009377,0.9796562001574785,6,0.011538300197571516,0.013677800074219704,0,0.011311399983242154,0.01324100000783801,,,48.0,60.0,35150,60.0,
77,77,90,16,6,262,3,,,,,,,,,,,session,3638.142751999898,144.0,2.0,72.0,0.016202403346907136,5,1.804735800018534,1.905201100045815,6,0.011683200020343065,0.013578800018876791,0,0.011076000053435564,0.012928300071507692,,,63.0,63.0,35150,60.0,
-77,-77,-45,16,7,263,12,,,,,,,,,,,session,3646.0247442000546,156.0,2.0,72.0,0.016202403346907136,2,1.4882167999166995,1.690496199997142,7,0.011421199887990952,0.013326700078323483,0,0.011077199829742312,0.013004999840632081,,,57.0,72.0,35150,60.0,
-77,-77,90,16,8,264,15,,,,,,,,,,,session,3653.957220399985,132.0,2.0,72.0,0.4,3,0.8107516998425126,0.96064109983854,6,0.011667800135910511,0.013581000035628676,1,0.011479400098323822,0.013410500017926097,,,69.0,57.0,35150,60.0,
-77,77,0,16,9,265,5,,,,,,,,,,,session,3661.065920900088,126.0,2.0,72.0,0.016202403346907136,4,1.2187114998232573,1.3665746999904513,7,0.2877388000488281,0.42022840003483,0,0.012244800105690956,0.014260500203818083,,,72.0,60.0,35150,60.0,
77,77,-45,16,10,266,0,,,,,,,,,,,session,3668.610368499998,132.0,2.0,72.0,0.4,5,1.7526224001776427,1.9194700000807643,1,0.6332286999095231,0.7830403000116348,6,0.04635509988293052,0.1996780999470502,,,48.0,57.0,35150,60.0,
77,-77,0,16,11,267,9,,,,,,,,,,,session,3676.913770500105,174.0,2.0,72.0,0.016202403346907136,3,1.218339600134641,1.3851870000362396,1,0.6089200000278652,0.7734032000880688,1,0.28685500007122755,0.43614660017192364,,,63.0,69.0,35150,60.0,
-77,77,-45,16,12,268,4,,,,,,,,,,,session,3686.245112600038,150.0,2.0,72.0,0.016202403346907136,3,0.9049178001005203,1.1217440001200885,6,0.8017853999044746,0.9685936998575926,0,0.27182019990868866,0.4390712999738753,,,54.0,48.0,35150,60.0,
77,-77,45,16,13,269,10,,,,,,,,,,,session,3694.4211351000704,150.0,2.0,72.0,0.4,4,0.3116944001521915,0.4904124999884516,7,0.3015779999550432,0.4554679000284523,6,0.6197951000649482,0.8034417999442667,,,60.0,57.0,35150,60.0,
-77,77,90,16,14,270,7,,,,,,,,,,,session,3702.3960605999455,162.0,2.0,72.0,0.016202403346907136,3,0.99054090003483,1.1264239998999983,6,0.01153539982624352,0.013392599998041987,0,0.012035200139507651,0.013947100145742297,,,57.0,57.0,35150,60.0,
77,77,45,16,15,271,2,,,,,,,,,,,session,3709.6249742999207,174.0,2.0,72.0,0.016202403346907136,3,0.9154258000198752,1.0346711000893265,6,1.5687736000400037,1.7183242000173777,0,0.4170228000730276,0.584588099969551,,,54.0,60.0,35150,60.0,
77,77,45,17,0,272,2,,,,,,,,,,,session,3719.204524700064,168.0,2.0,72.0,0.016202403346907136,5,0.8535609000828117,1.053524199873209,7,0.4578975001350045,0.6242357001174241,1,0.4801513000857085,0.6133501001168042,,,63.0,69.0,35150,60.0,
77,77,-45,17,1,273,0,,,,,,,,,,,session,3728.610504100099,132.0,2.0,72.0,0.016202403346907136,2,1.2371487999334931,1.4039020000491291,1,0.32010840019211173,0.4537947999779135,0,0.011083000106737018,0.012997200014069676,,,69.0,54.0,35150,60.0,
-77,77,0,17,2,274,5,,,,,,,,,,,session,3736.177481099963,144.0,2.0,72.0,0.016202403346907136,3,1.3029000998940319,1.4689150999765843,6,0.011400900082662702,0.013236300088465214,0,0.41241650003939867,0.5663932000752538,,,60.0,72.0,35150,60.0,
77,-77,45,17,3,275,10,,,,,,,,,,,session,3744.315151399933,168.0,2.0,72.0,0.016202403346907136,5,1.032391400076449,1.1996449001599103,6,0.01144969998858869,0.013517499901354313,0,0.010951400035992265,0.012802300043404102,,,60.0,57.0,35150,60.0,
-77,77,-45,17,4,276,4,,,,,,,,,,,session,3751.7590969998855,126.0,2.0,72.0,0.4,2,1.5040398999117315,1.6548756000120193,1,0.7586536000017077,0.941397299990058,0,0.012017100118100643,0.01393879996612668,,,60.0,51.0,35150,60.0,
-77,-77,-45,17,5,277,12,,,,,,,,,,,session,3759.7630739999004,138.0,2.0,72.0,0.4,3,0.987649500137195,1.143156100064516,1,0.3800934001337737,0.5139630001503974,6,0.2150954999960959,0.38184989988803864,,,72.0,72.0,35150,60.0,
-77,-77,0,17,6,278,13,,,,,,,,,,,session,3767.9787322001066,126.0,2.0,72.0,0.016202403346907136,4,1.5260528000071645,1.6760919999796897,7,0.011489099822938442,0.013386699836701155,0,0.010998799931257963,0.012916999869048595,,,60.0,51.0,35150,60.0,
77,-77,-45,17,7,279,8,,,,,,,,,,,session,3775.0913440999575,132.0,2.0,72.0,0.016202403346907136,5,2.5947776997927576,2.7281314998399466,7,0.3926162999123335,0.5749587998725474,0,0.011013999814167619,0.012910699937492609,,,48.0,66.0,35150,60.0,
77,-77,-45,17,7,279,8,,,materials/instructions\12_break.png,3783.9623734999914,3785.085111099994,0,0.972604600014165,1.1206266998779029,0.02571589988656342,1.1285924999974668,,,,,,,,,,,,,,,,,,,,35150,60.0,
-77,-77,90,17,8,280,15,,,,,,,,,,,session,3785.1007411999162,126.0,2.0,72.0,0.4,3,0.6502421000041068,0.7805807001423091,6,0.3513305999804288,0.4845455999020487,6,1.405674000037834,1.5702643999829888,,,63.0,63.0,35150,60.0,
77,77,0,17,9,281,1,,,,,,,,,,,session,3794.262358200038,174.0,2.0,72.0,0.016202403346907136,2,1.451294100144878,1.5846559000201523,7,0.14382890006527305,0.32710630004294217,0,0.012004500022158027,0.013904500054195523,,,60.0,60.0,35150,60.0,
-77,-77,45,17,10,282,14,,,,,,,,,,,session,3802.525926799979,156.0,2.0,72.0,0.016202403346907136,3,1.5656660997774452,1.7063422999344766,7,0.011315899901092052,0.013201900059357285,0,0.011127399979159236,0.013035000069066882,,,57.0,51.0,35150,60.0,
77,77,90,17,11,283,3,,,,,,,,,,,session,3810.1458254999015,156.0,2.0,72.0,0.016202403346907136,4,1.205250300001353,1.4052452999167144,6,0.26919299992732704,0.45359729998745024,0,0.06373959989286959,0.24842069996520877,,,57.0,66.0,35150,60.0,
-77,77,90,17,12,284,7,,,,,,,,,,,session,3818.345906900009,126.0,2.0,72.0,0.016202403346907136,2,1.5557254999876022,1.7716369000263512,7,0.38919549994170666,0.5724192000925541,0,0.5044640998821706,0.7363870998378843,,,60.0,72.0,35150,60.0,
77,-77,0,17,13,285,9,,,,,,,,,,,session,3827.1707854999695,156.0,2.0,72.0,0.4,4,0.3957831999287009,0.6128148999996483,0,0.268540000077337,0.4462150000035763,0,0.01104560005478561,0.012960799969732761,,,72.0,57.0,35150,60.0,
77,-77,90,17,14,286,11,,,,,,,,,,,session,3834.843069799943,156.0,2.0,72.0,0.4,4,0.5523075999226421,0.7536138999275863,6,1.0901857998687774,1.274662499781698,6,0.37049510003998876,0.5716895000077784,,,72.0,63.0,35150,60.0,
-77,77,45,17,15,287,6,,,,,,,,,,,session,3843.7503017999697,132.0,2.0,72.0,0.016202403346907136,3,0.601853699889034,0.7528817998245358,0,0.3258017001207918,0.5083981000352651,0,0.010967900045216084,0.18358270009048283,,,48.0,63.0,35150,60.0,
-77,77,45,18,0,288,6,,,,,,,,,,,session,3850.6887771999463,126.0,2.0,72.0,0.016202403346907136,4,0.5787599999457598,0.7752046000678092,7,0.5842017000541091,0.7840851000510156,0,1.0546703001018614,1.171410100068897,,,63.0,72.0,35150,60.0,
-77,77,90,18,1,289,7,,,,,,,,,,,session,3859.833923399914,138.0,2.0,72.0,0.016202403346907136,2,0.6809307001531124,0.881347700022161,6,1.6893130999524146,1.9059737999923527,0,0.48471720004454255,0.6708533999044448,,,51.0,57.0,35150,60.0,
77,-77,45,18,2,290,10,,,,,,,,,,,session,3868.837736000074,126.0,2.0,72.0,0.016202403346907136,5,1.2852183999493718,1.4259076998569071,7,0.20771919982507825,0.3415806998964399,0,0.01095319981686771,0.012984899803996086,,,48.0,72.0,35150,60.0,
77,77,0,18,3,291,1,,,,,,,,,,,session,3876.1843250000384,126.0,2.0,72.0,0.016202403346907136,2,1.5732366000302136,1.7542994001414627,6,0.45427940017543733,0.6199957001954317,0,0.16081480006687343,0.3423272001091391,,,69.0,54.0,35150,60.0,
-77,77,-45,18,4,292,4,,,,,,,,,,,session,3884.5791581000667,144.0,2.0,72.0,0.016202403346907136,3,1.4392461001407355,1.6394503000192344,7,0.011676900088787079,0.013561600120738149,0,0.5981244998984039,0.7137303999625146,,,72.0,69.0,35150,60.0,
-77,77,0,18,5,293,5,,,,,,,,,,,session,3893.1371512000915,168.0,2.0,72.0,0.016202403346907136,2,1.226002500159666,1.3798307999968529,6,0.011456400156021118,0.01341910008341074,0,0.0111478001344949,0.013061900157481432,,,60.0,60.0,35150,60.0,
-77,-77,-45,18,6,294,12,,,,,,,,,,,session,3901.1244741999544,150.0,2.0,72.0,0.016202403346907136,2,1.3667456000111997,1.433798300102353,7,0.034587200032547116,0.1840301000047475,0,0.23460049997083843,0.3364700998645276,,,48.0,48.0,35150,60.0,
-77,-77,0,18,7,295,13,,,,,,,,,,,session,3908.6333947998937,132.0,2.0,72.0,0.016202403346907136,5,1.4525142998900265,1.5178320000413805,1,0.5672893000300974,0.7168465000577271,0,0.2695373999886215,0.40166929992847145,,,48.0,60.0,35150,60.0,
-77,-77,90,18,8,296,15,,,,,,,,,,,session,3916.7219535999466,180.0,2.0,72.0,0.016202403346907136,3,1.0445290000643581,1.2278907001018524,7,0.011664800113067031,0.013594100018963218,0,0.011324500199407339,0.01330210012383759,,,72.0,57.0,35150,60.0,
77,77,45,18,9,297,2,,,,,,,,,,,session,3925.189728300087,180.0,2.0,72.0,0.016202403346907136,2,1.6182685000821948,1.7875344001222402,1,0.4381448000203818,0.5550179998390377,0,0.36924789985641837,0.5188462000805885,,,72.0,51.0,35150,60.0,
-77,-77,45,18,10,298,14,,,,,,,,,,,session,3934.552013099892,156.0,2.0,72.0,0.016202403346907136,4,2.361601899843663,2.5555771999061108,7,0.31118480022996664,0.5116172002162784,0,0.6819660000037402,0.9288520999252796,,,54.0,54.0,35150,60.0,
77,-77,-45,18,11,299,8,,,,,,,,,,,session,3944.430040600011,144.0,2.0,72.0,0.4,4,0.4128948000725359,0.6115614001173526,1,0.9194048000499606,1.0529311001300812,6,0.1376833999529481,0.30534219997934997,,,57.0,60.0,35150,60.0,
77,-77,-45,18,11,299,8,,,materials/instructions\12_break.png,3952.241454999894,3953.963275700109,0,1.5194694998208433,1.719598599942401,0.024608000181615353,1.7273572001140565,,,,,,,,,,,,,,,,,,,,35150,60.0,
77,-77,0,18,12,300,9,,,,,,,,,,,session,3953.9785134000704,180.0,2.0,72.0,0.016202403346907136,5,1.082474600058049,1.265010799979791,6,0.30124310008250177,0.4687499001156539,0,0.6147058999631554,0.8003424999769777,,,51.0,57.0,35150,60.0,
77,77,90,18,13,301,3,,,,,,,,,,,session,3962.768667599885,156.0,2.0,72.0,0.016202403346907136,3,0.6136004999279976,0.7635586999822408,1,1.4350282000377774,1.601855100132525,1,0.3669025998096913,0.549319899873808,,,69.0,54.0,35150,60.0,
77,-77,90,18,14,302,11,,,,,,,,,,,session,3972.314913399983,156.0,2.0,72.0,0.016202403346907136,4,0.8343910998664796,1.0011950999032706,0,0.5075429999269545,0.7243711999617517,0,0.5048100000713021,0.6571376000065356,,,69.0,54.0,35150,60.0,
77,77,-45,18,15,303,0,,,,,,,,,,,session,3980.7895164999645,126.0,2.0,72.0,0.016202403346907136,4,0.8047388000413775,0.977651699911803,1,1.4836376998573542,1.6836238999385387,0,0.9325707999523729,1.1828421000391245,,,51.0,69.0,35150,60.0,
77,-77,0,19,0,304,9,,,,,,,,,,,session,3990.199260500027,138.0,2.0,72.0,0.016202403346907136,3,0.5980836001690477,0.7648624000139534,6,0.3689619000069797,0.569098699837923,0,0.011055600130930543,0.21808540006168187,,,60.0,69.0,35150,60.0,
-77,77,-45,19,1,305,4,,,,,,,,,,,session,3997.666896000039,132.0,2.0,72.0,0.4,2,0.6530283000320196,0.8038137000985444,1,1.768843499943614,1.9024120001122355,1,0.45153079996816814,0.5683404000010341,,,63.0,72.0,35150,60.0,
-77,77,90,19,2,306,7,,,,,,,,,,,session,4006.8230016001035,132.0,2.0,72.0,0.016202403346907136,2,1.313924100017175,1.4138112999498844,6,0.3162638999056071,0.4830280998721719,1,0.29531840002164245,0.4771918000187725,,,48.0,51.0,35150,60.0,
77,-77,-45,19,3,307,8,,,,,,,,,,,session,4015.067025899887,174.0,2.0,72.0,0.016202403346907136,2,1.1663897999096662,1.3501342998351902,1,0.4596526001114398,0.659694799920544,1,0.011027800152078271,0.07546170009300113,,,72.0,69.0,35150,60.0,
77,-77,90,19,4,308,11,,,,,,,,,,,session,4023.834837399889,132.0,2.0,72.0,0.016202403346907136,2,2.5449167999904603,2.7232502000406384,7,1.2038782997988164,1.5391484999563545,0,0.33659520000219345,0.5315573001280427,,,48.0,51.0,35150,60.0,
-77,77,0,19,5,309,5,,,,,,,,,,,session,4033.9294727998786,174.0,2.0,72.0,0.016202403346907136,3,0.7700688999611884,1.020738000050187,6,1.0217846999876201,1.3220452000387013,0,0.3400579998269677,0.5568164999131113,,,69.0,51.0,35150,60.0,
-77,-77,90,19,6,310,15,,,,,,,,,,,session,4043.1683030999266,150.0,2.0,72.0,0.016202403346907136,4,1.7033965000882745,1.9036238000262529,1,0.4205213999375701,0.6198795998934656,0,0.011490600183606148,0.013352700043469667,,,63.0,72.0,35150,60.0,
77,77,45,19,7,311,2,,,,,,,,,,,session,4051.9139539001044,144.0,2.0,72.0,0.016202403346907136,5,0.643445499939844,0.893649899866432,7,0.2813362998422235,0.46335859992541373,0,0.01121119991876185,0.013112700078636408,,,66.0,66.0,35150,60.0,
-77,-77,-45,19,8,312,12,,,,,,,,,,,session,4059.5435430998914,150.0,2.0,72.0,0.016202403346907136,3,0.371096899965778,0.5545312999747694,6,0.0484867999330163,0.26490759989246726,0,0.011008499888703227,0.012938000028952956,,,60.0,57.0,35150,60.0,
-77,-77,45,19,9,313,14,,,,,,,,,,,session,4066.2756632999517,168.0,2.0,72.0,0.016202403346907136,2,0.011172499973326921,0.013073799898847938,6,0.567506100051105,0.7842868000734597,0,0.8280376000329852,1.0664155001286417,,,60.0,72.0,35150,60.0,
77,77,90,19,10,314,3,,,,,,,,,,,session,4074.6171442000195,126.0,2.0,72.0,0.016202403346907136,5,0.7295443001203239,0.8969921001698822,1,0.4869398002047092,0.6397492000833154,0,0.41829010006040335,0.5681810998357832,,,63.0,66.0,35150,60.0,
77,77,0,19,11,315,1,,,,,,,,,,,session,4082.632812099997,168.0,2.0,72.0,0.016202403346907136,5,0.6547960001043975,0.8708116000052541,6,1.0397723999340087,1.5726111999247223,0,0.4487383000086993,0.6511349000502378,,,66.0,57.0,35150,60.0,
-77,77,45,19,12,316,6,,,,,,,,,,,session,4092.0102905000094,156.0,2.0,72.0,0.016202403346907136,4,1.1326134998816997,1.313720499863848,7,0.011492199962958694,0.013394400011748075,0,0.011066299863159657,0.012949900003150105,,,51.0,66.0,35150,60.0,
-77,-77,0,19,13,317,13,,,,,,,,,,,session,4099.7254107999615,174.0,2.0,72.0,0.4,3,0.684710199944675,0.8176030998583883,0,0.6699039000086486,0.8034506998956203,6,1.3038399999495596,1.4206243001390249,,,54.0,48.0,35150,60.0,
77,77,-45,19,14,318,0,,,,,,,,,,,session,4108.817597900052,168.0,2.0,72.0,0.4,5,0.35367810004390776,0.48684450006112456,1,0.720295799896121,0.9032509000971913,6,0.26802219985984266,0.4348076998721808,,,72.0,60.0,35150,60.0,
77,-77,45,19,15,319,10,,,,,,,,,,,session,4117.090684999945,144.0,2.0,72.0,0.016202403346907136,4,0.7158735000994056,0.9021177000831813,1,1.453898400068283,1.6047998999711126,1,1.3680022999178618,1.6180084999650717,,,72.0,66.0,35150,60.0,
77,-77,45,19,15,319,10,,,materials/instructions\12_break.png,4128.0454027000815,4139.321481999941,0,11.173765400191769,11.273901800159365,0.0214094000402838,11.281287299934775,,,,,,,,,,,,,,,,,,,,35150,60.0,
-77,-77,-45,20,0,320,12,,,,,,,,,,,session,4139.336443299893,132.0,2.0,72.0,0.016202403346907136,3,0.5707334999460727,0.7042749999091029,1,2.570490499958396,2.8227397999726236,0,0.8835764001123607,1.115654299966991,,,54.0,63.0,35150,60.0,
77,77,45,20,1,321,2,,,,,,,,,,,session,4150.16512749996,156.0,2.0,72.0,0.016202403346907136,5,1.0214571999385953,1.2048153998330235,1,1.1681429999880493,1.403112699976191,0,0.5512054001446813,0.7845569001510739,,,66.0,57.0,35150,60.0,
-77,77,45,20,2,322,6,,,,,,,,,,,session,4159.655513599981,168.0,2.0,72.0,0.016202403346907136,4,1.0426954000722617,1.229429299943149,1,0.45178029988892376,0.5359368999488652,0,0.011203399859368801,0.013124899938702583,,,69.0,72.0,35150,60.0,
-77,-77,0,20,3,323,13,,,,,,,,,,,session,4168.545334799914,126.0,2.0,72.0,0.016202403346907136,3,1.0858514001592994,1.201746900100261,7,0.2887701001018286,0.4560234001837671,0,0.011561699910089374,0.013412599917501211,,,63.0,63.0,35150,60.0,
-77,77,90,20,4,324,7,,,,,,,,,,,session,4175.844292999944,126.0,2.0,72.0,0.016202403346907136,2,1.6923458999954164,1.8258452999871224,6,0.011462299851700664,0.013358899857848883,0,0.011481999885290861,0.013409199891611934,,,72.0,51.0,35150,60.0,
77,-77,0,20,5,325,9,,,,,,,,,,,session,4183.315996000078,144.0,2.0,72.0,0.016202403346907136,5,1.2275380999781191,1.3769549999851733,1,0.3072383999824524,0.44023900013417006,0,0.011847099987789989,0.013789900112897158,,,57.0,60.0,35150,60.0,
77,-77,90,20,6,326,11,,,,,,,,,,,session,4191.536541800015,180.0,2.0,72.0,0.016202403346907136,2,1.200088799931109,1.383741799974814,7,0.32037640013732016,0.48906320007517934,0,0.010973100084811449,0.012904500123113394,,,63.0,66.0,35150,60.0,
77,77,90,20,7,327,3,,,,,,,,,,,session,4200.034603599925,150.0,2.0,72.0,0.016202403346907136,2,0.9685961999930441,1.1511640001554042,1,0.011590800015255809,0.013638600008562207,0,0.01108089997433126,0.012946199858561158,,,69.0,51.0,35150,60.0,
-77,77,-45,20,8,328,4,,,,,,,,,,,session,4207.176912199939,156.0,2.0,72.0,0.016202403346907136,5,1.5058631000574678,1.7064145000185817,7,0.5373383001424372,0.7875979000236839,0,0.26406949991360307,0.5326206998433918,,,48.0,48.0,35150,60.0,
77,-77,45,20,9,329,10,,,,,,,,,,,session,4216.018375700107,138.0,2.0,72.0,0.016202403346907136,2,1.5687836001161486,1.8023794000037014,1,0.7525702000129968,0.9709020999725908,0,0.6505511999130249,0.01111790002323687,,,63.0,63.0,35150,60.0,
-77,-77,90,20,10,330,15,,,,,,,,,,,session,4225.2892458999995,156.0,2.0,72.0,0.016202403346907136,3,0.7732251000124961,1.040042599895969,6,0.5530522000044584,0.8220285000279546,1,1.8852673000656068,2.0685944999568164,,,51.0,63.0,35150,60.0,
77,-77,-45,20,11,331,8,,,,,,,,,,,session,4235.770146999974,168.0,2.0,72.0,0.4,4,0.2560626999475062,0.45622729999013245,1,0.42366479989141226,0.7404161000158638,1,1.284989499952644,1.4026829998474568,,,69.0,63.0,35150,60.0,
77,77,-45,20,12,332,0,,,,,,,,,,,session,4244.822206400102,138.0,2.0,72.0,0.016202403346907136,3,0.768107800045982,0.9173306999728084,6,0.011388600105419755,0.013203199952840805,0,0.5680790999904275,0.7471555999945849,,,66.0,51.0,35150,60.0,
-77,77,0,20,13,333,5,,,,,,,,,,,session,4252.231336399913,138.0,2.0,72.0,0.016202403346907136,4,0.7030523000285029,0.9032447000499815,6,0.011744500137865543,0.013636199990287423,0,0.011077500181272626,0.012960300082340837,,,51.0,72.0,35150,60.0,
77,77,0,20,14,334,1,,,,,,,,,,,session,4258.976136399899,156.0,2.0,72.0,0.4,5,0.4226700998842716,0.6228999998420477,0,0.0690162000246346,0.304327700054273,6,0.16942459996789694,0.3371172999031842,,,54.0,66.0,35150,60.0,
-77,-77,45,20,15,335,14,,,,,,,,,,,session,4266.288766100071,168.0,2.0,72.0,0.016202403346907136,2,1.0886337999254465,1.3044572998769581,7,0.2960409000515938,0.49650090001523495,0,0.01104969996958971,0.012873400002717972,,,57.0,57.0,35150,60.0,
-77,-77,-45,21,0,336,12,,,,,,,,,,,session,4274.282516099978,180.0,2.0,72.0,0.016202403346907136,2,1.602072199806571,1.8172643999569118,1,0.011623100144788623,0.013471400132402778,0,0.18358869990333915,0.31811069999821484,,,69.0,72.0,35150,60.0,
77,77,45,21,1,337,2,,,,,,,,,,,session,4283.2339691000525,168.0,2.0,72.0,0.016202403346907136,5,0.9988170000724494,1.149164600064978,1,0.9403548999689519,1.1082812999375165,0,0.7702532999683172,1.037139100022614,,,54.0,63.0,35150,60.0,
77,77,90,21,2,338,3,,,,,,,,,,,session,4292.723920600023,168.0,2.0,72.0,0.4,5,0.4627413998823613,0.6623132999520749,6,1.438086399808526,1.6222699999343604,0,1.6086110000032932,1.9087642000522465,,,54.0,54.0,35150,60.0,
-77,77,0,21,3,339,5,,,,,,,,,,,session,4303.532748800004,180.0,2.0,72.0,0.016202403346907136,5,2.283684500027448,2.367142700124532,7,0.3221606998704374,0.4236965999007225,0,0.2724788000341505,0.37261219997890294,,,54.0,48.0,35150,60.0,
-77,77,0,21,3,339,5,,,materials/instructions\12_break.png,4312.8693850000855,4314.556511499919,0,1.5350008001551032,1.6849710000678897,0.021917499834671617,1.691294799791649,,,,,,,,,,,,,,,,,,,,35150,60.0,
-77,77,45,21,4,340,6,,,,,,,,,,,session,4314.570362400031,180.0,2.0,72.0,0.016202403346907136,5,1.1434647999703884,1.3435213000047952,6,0.011480000102892518,0.01338790007866919,0,0.41895720013417304,0.6163916001096368,,,63.0,57.0,35150,60.0,
-77,-77,0,21,5,341,13,,,,,,,,,,,session,4323.615924499929,174.0,2.0,72.0,0.016202403346907136,5,2.7158192999195307,2.7991126000415534,1,0.03782409988343716,0.18895499990321696,0,0.617521199863404,0.734161099884659,,,54.0,72.0,35150,60.0,
-77,77,-45,21,6,342,4,,,,,,,,,,,session,4333.789944200078,162.0,2.0,72.0,0.016202403346907136,3,1.556709700031206,1.7261638999916613,6,0.465521999867633,0.6656914998311549,0,0.49986719992011786,0.7634686001110822,,,54.0,60.0,35150,60.0,
