x,y,orientation,.thisRepN,.thisTrialN,.thisN,.thisIndex,.stepSize,.intensity,image_name,global_start_time,global_end_time,pressKey,pressRT,releaseRT,image_started,image_ended,name,globalTime,fixation_dur,stimulation_dur,post_fixation,opacity,locationResponse_pressKey,locationResponse_pressRT,locationResponse_releaseRT,orientationResponse_pressKey,orientationResponse_pressRT,orientationResponse_releaseRT,pasResponse_pressKey,pasResponse_pressRT,pasResponse_releaseRT,.response,finalOpacity,postLoc,postOri,ID,frameRate,
,,,0,-1,-1,0,0.0969100130080564,None,materials/instructions\1_welcome.png,2.5725602000020444,44.282721500028856,0,41.45845879998524,41.708467199932784,0.08261039992794394,41.70828159991652,,,,,,,,,,,,,,,,,,,,38430,60.0,
,,,0,-1,-1,0,0.0969100130080564,None,materials/instructions\2_instruction.png,44.34315840003546,67.5998681000201,0,22.921770500019193,23.25472220010124,0.02337980002630502,23.261819200008176,,,,,,,,,,,,,,,,,,,,38430,60.0,
,,,0,-1,-1,0,0.0969100130080564,None,materials/instructions\3_location_demo.png,67.65387499995995,77.65715770004317,0,9.697807100019418,9.999088300042786,0.016504500061273575,10.00701719999779,,,,,,,,,,,,,,,,,,,,38430,60.0,
,,,0,-1,-1,0,0.0969100130080564,None,materials/instructions\4_orientation_demo.png,77.71583750005811,94.13429439999163,0,16.41638349997811,0.02094100008253008,0.010222700075246394,16.42421289999038,,,,,,,,,,,,,,,,,,,,38430,60.0,
,,,0,-1,-1,0,0.0969100130080564,None,materials/instructions\5_pas_demo.png,94.18547280004714,103.60842659999616,0,9.420921000069939,0.2472297000931576,0.01921659999061376,9.428870000061579,,,,,,,,,,,,,,,,,,,,38430,60.0,
77,77,90,0,-1,-1,0,0.0969100130080564,None,,,,,,,,,session,103.62408159999177,132.0,2.0,72.0,1.0,5,3.90591729991138,4.223686299985275,6,2.5060111000202596,2.8229463000316173,7,2.0956192000303417,2.413840900058858,,,,,38430,60.0,
77,77,-45,0,-1,-1,0,0.0969100130080564,None,,,,,,,,,session,117.2886619999772,156.0,2.0,72.0,1.0,3,4.367486200062558,4.666833400027826,1,1.4281841000774875,1.672852999996394,0,1.2654992999741808,1.4988356999820098,,,,,38430,60.0,
77,77,45,0,-1,-1,0,0.0969100130080564,None,,,,,,,,,session,129.12105590000283,180.0,2.0,72.0,1.0,5,0.5501014998881146,0.9168715999694541,7,2.076075299992226,2.373951100045815,1,4.085252900025807,4.385525200050324,,,,,38430,60.0,
77,77,0,0,-1,-1,0,0.0969100130080564,None,,,,,,,,,session,141.20644900004845,174.0,2.0,72.0,1.0,5,0.416857699980028,0.7005647999467328,0,3.3385231000138447,3.666604800033383,7,1.5322809000499547,1.7945757999550551,,,,,38430,60.0,
-77,77,-45,0,-1,-1,0,0.0969100130080564,None,,,,,,,,,session,151.66702070005704,144.0,2.0,72.0,1.0,2,1.5126707999734208,1.810988700017333,1,1.539322299999185,1.8196153999306262,7,1.381876299972646,1.648740499978885,,,,,38430,60.0,
,,,0,-1,-1,0,0.0969100130080564,None,materials/instructions\10_staircase_start.png,160.75067179999314,178.8018904000055,0,17.783194200019352,18.049235899932683,0.02127450006082654,18.056742300046608,,,,,,,,,,,,,,,,,,,,38430,60.0,
,,,0,0,-1,0,0.0969100130080564,0.4,,,,,,,,,staircase,178.81663660006598,174.0,2.0,72.0,0.4,,,,7,1.0669943999964744,1.3328801000025123,,,,1,,,,38430,60.0,
,,,0,1,-1,0,0.0969100130080564,0.32,,,,,,,,,staircase,184.370944699971,168.0,2.0,72.0,0.32,,,,0,1.2465703000780195,1.46351620007772,,,,1,,,,38430,60.0,
,,,0,2,-1,0,0.0969100130080564,0.256,,,,,,,,,staircase,189.94245690002572,174.0,2.0,72.0,0.256,,,,0,0.9168388000689447,1.1793051999993622,,,,1,,,,38430,60.0,
,,,0,3,-1,0,0.0969100130080564,0.2048,,,,,,,,,staircase,195.6493943000678,126.0,2.0,72.0,0.2048,,,,7,0.6877069000620395,0.9545041000237688,,,,1,,,,38430,60.0,
,,,0,4,-1,0,0.0969100130080564,0.16384,,,,,,,,,staircase,200.06852430000436,168.0,2.0,72.0,0.16384,,,,6,0.480129599920474,0.7461972999153659,,,,1,,,,38430,60.0,
,,,0,5,-1,0,0.0969100130080564,0.13107200000000002,,,,,,,,,staircase,204.93729270005133,138.0,2.0,72.0,0.13107200000000002,,,,1,0.7385979000246152,1.038429900072515,,,,1,,,,38430,60.0,
,,,0,6,-1,0,0.0969100130080564,0.10485760000000002,,,,,,,,,staircase,209.59012249996886,180.0,2.0,72.0,0.10485760000000002,,,,0,0.4735643999883905,0.7401148999342695,,,,1,,,,38430,60.0,
,,,0,7,-1,0,0.0969100130080564,0.08388608000000002,,,,,,,,,staircase,214.64487449999433,144.0,2.0,72.0,0.08388608000000002,,,,0,0.315913200029172,0.5797203000402078,,,,1,,,,38430,60.0,
,,,0,8,-1,0,0.0969100130080564,0.06710886400000002,,,,,,,,,staircase,219.58421320002526,144.0,2.0,72.0,0.06710886400000002,,,,6,0.6274002999998629,0.9106676999945194,,,,1,,,,38430,60.0,
,,,0,9,-1,0,0.0969100130080564,0.053687091200000016,,,,,,,,,staircase,224.20195510005578,126.0,2.0,72.0,0.053687091200000016,,,,1,1.9045836000004783,2.15481760003604,,,,1,,,,38430,60.0,
,,,0,10,-1,0,0.0969100130080564,0.04294967296000001,,,,,,,,,staircase,229.78953020006884,180.0,2.0,72.0,0.04294967296000001,,,,6,0.5779689999762923,0.8281536999857053,,,,1,,,,38430,60.0,
,,,0,11,-1,0,0.0969100130080564,0.034359738368000006,,,,,,,,,staircase,234.92630839999765,138.0,2.0,72.0,0.034359738368000006,,,,0,0.5662514999276027,0.7990335999056697,,,,1,,,,38430,60.0,
,,,0,12,-1,0,0.0969100130080564,0.027487790694400004,,,,,,,,,staircase,239.78715330001432,162.0,2.0,72.0,0.027487790694400004,,,,1,0.6520982999354601,0.8686994999879971,,,,1,,,,38430,60.0,
,,,0,13,-1,0,0.0969100130080564,0.021990232555520003,,,,,,,,,staircase,244.70399990002625,126.0,2.0,72.0,0.021990232555520003,,,,0,1.3322967999847606,1.6824320000596344,,,,0,,,,38430,60.0,
,,,0,14,-1,0,0.0969100130080564,0.027487790694400004,,,,,,,,,staircase,249.804012699984,156.0,2.0,72.0,0.027487790694400004,,,,0,0.6645784999709576,0.998195799998939,,,,1,,,,38430,60.0,
,,,0,15,-1,0,0.0969100130080564,0.021990232555520003,,,,,,,,,staircase,254.72528250003234,132.0,2.0,72.0,0.021990232555520003,,,,7,1.2856246000155807,1.5858972000423819,,,,0,,,,38430,60.0,
,,,0,16,-1,0,0.0969100130080564,0.027487790694400004,,,,,,,,,staircase,259.8282004999928,162.0,2.0,72.0,0.027487790694400004,,,,6,0.3623389001004398,0.576831900049001,,,,1,,,,38430,60.0,
,,,0,17,-1,0,0.0969100130080564,0.021990232555520003,,,,,,,,,staircase,264.8850353000453,150.0,2.0,72.0,0.021990232555520003,,,,1,1.9529358999570832,2.253101999987848,,,,1,,,,38430,60.0,
,,,0,18,-1,0,0.0969100130080564,0.017592186044416,,,,,,,,,staircase,270.95425129996147,132.0,2.0,72.0,0.017592186044416,,,,1,0.8221498999046162,1.072550999931991,,,,1,,,,38430,60.0,
,,,0,19,-1,0,0.0969100130080564,0.014073748835532801,,,,,,,,,staircase,275.5411258999957,144.0,2.0,72.0,0.014073748835532801,,,,1,0.7708506999770179,1.054732899996452,,,,0,,,,38430,60.0,
,,,0,20,-1,0,0.0969100130080564,0.017592186044416,,,,,,,,,staircase,280.3115670999978,144.0,2.0,72.0,0.017592186044416,,,,1,0.8713253000751138,1.1076795000117272,,,,0,,,,38430,60.0,
,,,0,21,-1,0,0.0969100130080564,0.021990232555520003,,,,,,,,,staircase,285.78841060004197,132.0,2.0,72.0,0.021990232555520003,,,,0,1.061649499926716,1.2784311999566853,,,,1,,,,38430,60.0,
,,,0,22,-1,0,0.0969100130080564,0.017592186044416,,,,,,,,,staircase,290.602770700003,162.0,2.0,72.0,0.017592186044416,,,,7,1.2681985000381246,1.486300199991092,,,,0,,,,38430,60.0,
,,,0,23,-1,0,0.0969100130080564,0.021990232555520003,,,,,,,,,staircase,296.10625479999,132.0,2.0,72.0,0.021990232555520003,,,,6,0.566157600027509,0.783567100064829,,,,1,,,,38430,60.0,
,,,0,24,-1,0,0.0969100130080564,0.017592186044416,,,,,,,,,staircase,300.38976639998145,174.0,2.0,72.0,0.017592186044416,,,,7,1.4052987000904977,1.6564278000732884,,,,1,,,,38430,60.0,
,,,0,25,-1,0,0.0969100130080564,0.014073748835532801,,,,,,,,,staircase,306.24591950001195,138.0,2.0,72.0,0.014073748835532801,,,,0,0.8015456999419257,1.1017440999858081,,,,0,,,,38430,60.0,
,,,0,26,-1,0,0.0969100130080564,0.017592186044416,,,,,,,,,staircase,310.9519188000122,174.0,2.0,72.0,0.017592186044416,,,,7,0.7783311000093818,1.061582599999383,,,,0,,,,38430,60.0,
,,,0,27,-1,0,0.0969100130080564,0.021990232555520003,,,,,,,,,staircase,316.22047629998997,162.0,2.0,72.0,0.021990232555520003,,,,1,0.8694232000270858,1.2035354999825358,,,,1,,,,38430,60.0,
,,,0,28,-1,0,0.0969100130080564,0.017592186044416,,,,,,,,,staircase,321.4241788999643,138.0,2.0,72.0,0.017592186044416,,,,1,0.6699678999138996,0.9202669999795035,,,,1,,,,38430,60.0,
,,,0,29,-1,0,0.0969100130080564,0.014073748835532801,,,,,,,,,staircase,325.9450619999552,144.0,2.0,72.0,0.014073748835532801,,,,1,0.6996127999154851,0.9326030999654904,,,,0,,,,38430,60.0,
,,,0,30,-1,0,0.0969100130080564,0.017592186044416,,,,,,,,,staircase,330.63743380003143,162.0,2.0,72.0,0.017592186044416,,,,1,0.7079243999905884,1.006873399950564,,,,0,,,,38430,60.0,
,,,0,31,-1,0,0.0969100130080564,0.021990232555520003,,,,,,,,,staircase,335.6552951000631,144.0,2.0,72.0,0.021990232555520003,,,,1,0.6530582000268623,0.8855716000543907,,,,0,,,,38430,60.0,
,,,0,32,-1,0,0.0969100130080564,0.027487790694400004,,,,,,,,,staircase,340.25714440003503,174.0,2.0,72.0,0.027487790694400004,,,,1,0.6527634999947622,0.853027299977839,,,,1,,,,38430,60.0,
,,,0,33,-1,0,0.0969100130080564,0.021990232555520003,,,,,,,,,staircase,345.3287342999829,162.0,2.0,72.0,0.021990232555520003,,,,0,0.5892178999492899,0.8870313999941573,,,,1,,,,38430,60.0,
,,,0,34,-1,0,0.0969100130080564,0.017592186044416,,,,,,,,,staircase,350.72227300005034,180.0,2.0,72.0,0.017592186044416,,,,6,0.8538295000325888,1.1024743999587372,,,,0,,,,38430,60.0,
,,,0,35,-1,0,0.0969100130080564,0.021990232555520003,,,,,,,,,staircase,356.15357540000696,168.0,2.0,72.0,0.021990232555520003,,,,6,0.6471731000347063,0.8982950000790879,,,,0,,,,38430,60.0,
,,,0,36,-1,0,0.0969100130080564,0.027487790694400004,,,,,,,,,staircase,361.1735751000233,168.0,2.0,72.0,0.027487790694400004,,,,6,0.9699326000409201,1.2528391999658197,,,,0,,,,38430,60.0,
,,,0,37,-1,0,0.0969100130080564,0.034359738368000006,,,,,,,,,staircase,366.5438644000096,168.0,2.0,72.0,0.034359738368000006,,,,7,0.6882169999880716,0.9668315999442711,,,,1,,,,38430,60.0,
,,,0,38,-1,0,0.0969100130080564,0.027487790694400004,,,,,,,,,staircase,371.8837013000157,156.0,2.0,72.0,0.027487790694400004,,,,7,0.43726509995758533,0.669113399926573,,,,1,,,,38430,60.0,
,,,0,39,-1,0,0.0969100130080564,0.021990232555520003,,,,,,,,,staircase,376.6023017000407,132.0,2.0,72.0,0.021990232555520003,,,,1,1.049594100099057,1.4164788000052795,,,,1,,,,38430,60.0,
,,,0,40,-1,0,0.0969100130080564,0.017592186044416,,,,,,,,,staircase,381.5377287999727,126.0,2.0,72.0,0.017592186044416,,,,6,0.9038359000114724,1.119768000091426,,,,1,,,,38430,60.0,
,,,0,41,-1,0,0.0969100130080564,0.014073748835532801,,,,,,,,,staircase,386.0742251999909,144.0,2.0,72.0,0.014073748835532801,,,,1,0.762412799987942,1.0617497999919578,,,,0,,,,38430,60.0,
,,,0,42,-1,0,0.0969100130080564,0.017592186044416,,,,,,,,,staircase,390.861892899964,180.0,2.0,72.0,0.017592186044416,,,,1,0.6510553000262007,1.0510057000210509,,,,0,,,,38430,60.0,
,,,0,43,-1,0,0.0969100130080564,0.021990232555520003,,,,,,,,,staircase,396.9194489000365,144.0,2.0,72.0,0.021990232555520003,,,,1,0.7525221999967471,1.10230390005745,,,,0,,,,38430,60.0,
,,,0,44,-1,0,0.0969100130080564,0.027487790694400004,,,,,,,,,staircase,401.73925450001843,132.0,2.0,72.0,0.027487790694400004,,,,1,0.5138193999882787,0.7974514999659732,,,,1,,,,38430,60.0,
,,,0,45,-1,0,0.0969100130080564,0.021990232555520003,,,,,,,,,staircase,406.0574756000424,144.0,2.0,72.0,0.021990232555520003,,,,1,0.5703055000631139,0.8038400000659749,,,,1,,,,38430,60.0,
,,,0,46,-1,0,0.0969100130080564,0.017592186044416,,,,,,,,,staircase,410.57941850007046,156.0,2.0,72.0,0.017592186044416,,,,1,0.6914097999688238,0.9328267999226227,,,,0,,,,38430,60.0,
,,,0,47,-1,0,0.0969100130080564,0.021990232555520003,,,,,,,,,staircase,415.6549721000483,156.0,2.0,72.0,0.021990232555520003,,,,1,0.6462691999040544,0.9462915000040084,,,,0,,,,38430,60.0,
,,,0,48,-1,0,0.0969100130080564,0.027487790694400004,,,,,,,,,staircase,420.77027370000724,180.0,2.0,72.0,0.027487790694400004,,,,1,0.6095634999219328,0.8597116000019014,,,,0,,,,38430,60.0,
,,,0,49,-1,0,0.0969100130080564,0.034359738368000006,,,,,,,,,staircase,425.95662339997943,138.0,2.0,72.0,0.034359738368000006,,,,6,0.3534264999907464,0.6209816000191495,,,,1,,,,38430,60.0,
,,,0,50,-1,0,0.0969100130080564,0.027487790694400004,,,,,,,,,staircase,430.1925165000139,150.0,2.0,72.0,0.027487790694400004,,,,1,0.5911094000330195,0.8410998999606818,,,,1,,,,38430,60.0,
,,,0,51,-1,0,0.0969100130080564,0.021990232555520003,,,,,,,,,staircase,434.84518760000356,150.0,2.0,72.0,0.021990232555520003,,,,0,1.7381182999815792,1.990515899960883,,,,0,,,,38430,60.0,
,,,0,52,-1,0,0.0969100130080564,0.027487790694400004,,,,,,,,,staircase,441.2219936000183,162.0,2.0,72.0,0.027487790694400004,,,,7,0.600605999934487,0.867850299924612,,,,1,,,,38430,60.0,
,,,0,53,-1,0,0.0969100130080564,0.021990232555520003,,,,,,,,,staircase,446.10343729995657,132.0,2.0,72.0,0.021990232555520003,,,,7,0.603777699987404,0.853735200013034,,,,1,,,,38430,60.0,
,,,0,54,-1,0,0.0969100130080564,0.017592186044416,,,,,,,,,staircase,450.47468300000764,156.0,2.0,72.0,0.017592186044416,,,,6,0.95435459993314,1.2709657999221236,,,,0,,,,38430,60.0,
,,,0,55,-1,0,0.0969100130080564,0.021990232555520003,,,,,,,,,staircase,455.66233670001384,180.0,2.0,72.0,0.021990232555520003,,,,1,0.5389605000382289,0.8219276000745595,,,,1,,,,38430,60.0,
,,,0,56,-1,0,0.0969100130080564,0.017592186044416,,,,,,,,,staircase,461.3063815999776,162.0,2.0,72.0,0.017592186044416,,,,1,0.8529630999546498,1.1152206999249756,,,,1,,,,38430,60.0,
,,,0,57,-1,0,0.0969100130080564,0.014073748835532801,,,,,,,,,staircase,466.4540882000001,168.0,2.0,72.0,0.014073748835532801,,,,7,0.7519681999692693,1.01882110000588,,,,1,,,,38430,60.0,
,,,0,58,-1,0,0.0969100130080564,0.01125899906842624,,,,,,,,,staircase,471.5900001999689,144.0,2.0,72.0,0.01125899906842624,,,,7,0.8753368000034243,1.1238521001068875,,,,0,,,,38430,60.0,
,,,0,59,-1,0,0.0969100130080564,0.014073748835532801,,,,,,,,,staircase,476.42851220001467,174.0,2.0,72.0,0.014073748835532801,,,,6,1.1172579999547452,1.3375819999491796,,,,0,,,,38430,60.0,
,,,0,60,-1,0,0.0969100130080564,0.017592186044416,,,,,,,,,staircase,482.0391308000544,162.0,2.0,72.0,0.017592186044416,,,,7,0.8867286000167951,1.1396033000200987,,,,0,,,,38430,60.0,
,,,0,61,-1,0,0.0969100130080564,0.021990232555520003,,,,,,,,,staircase,487.4399688000558,168.0,2.0,72.0,0.021990232555520003,,,,7,0.6692731999792159,0.9694472999544814,,,,1,,,,38430,60.0,
,,,0,62,-1,0,0.0969100130080564,0.017592186044416,,,,,,,,,staircase,492.5226800000528,132.0,2.0,72.0,0.017592186044416,,,,7,0.4720758000621572,0.7397014000453055,,,,0,,,,38430,60.0,
,,,0,63,-1,0,0.0969100130080564,0.021990232555520003,,,,,,,,,staircase,496.77742000005674,126.0,2.0,72.0,0.021990232555520003,,,,6,0.5702665999997407,0.8036819000262767,,,,1,,,,38430,60.0,
,,,0,64,-1,0,0.0969100130080564,0.017592186044416,,,,,,,,,staircase,501.012430200004,126.0,2.0,72.0,0.017592186044416,,,,7,0.8124183000763878,1.0322130999993533,,,,1,,,,38430,60.0,
,,,0,65,-1,0,0.0969100130080564,0.014073748835532801,,,,,,,,,staircase,506.07541010004934,162.0,2.0,72.0,0.014073748835532801,,,,0,0.6525138000724837,0.902234600041993,,,,1,,,,38430,60.0,
,,,0,66,-1,0,0.0969100130080564,0.01125899906842624,,,,,,,,,staircase,511.00797539995983,144.0,2.0,72.0,0.01125899906842624,,,,0,0.5506915999576449,0.01154310000129044,,,,0,,,,38430,60.0,
,,,0,67,-1,0,0.0969100130080564,0.014073748835532801,,,,,,,,,staircase,515.2755625999998,174.0,2.0,72.0,0.014073748835532801,,,,0,0.5316711999475956,0.011529200011864305,,,,0,,,,38430,60.0,
,,,0,68,-1,0,0.0969100130080564,0.017592186044416,,,,,,,,,staircase,520.0467939999653,156.0,2.0,72.0,0.017592186044416,,,,0,0.3907738000852987,0.01137140009086579,,,,0,,,,38430,60.0,
,,,0,69,-1,0,0.0969100130080564,0.021990232555520003,,,,,,,,,staircase,524.3496107000392,132.0,2.0,72.0,0.021990232555520003,,,,0,0.6355139999650419,0.011305699939839542,,,,1,,,,38430,60.0,
,,,0,-1,-1,0,,,materials/instructions\11_session_start.png,529.1666494000237,549.3498943999875,0,20.181261700112373,0.217148800031282,0.020102999988012016,20.192796899937093,,,,,,,,,,,,,,,,,,,,38430,60.0,
,,,0,-1,-1,0,,,,,,,,,,,,,,,,,,,,,,,,,,,0.019781313695318017,,,38430,60.0,
-77,77,90,0,0,0,7,,,,,,,,,,,session,549.3713709999574,168.0,2.0,72.0,0.019781313695318017,2,6.141080799978226,6.374611499952152,1,1.5023750000400469,1.7014351000543684,0,0.7854672999819741,0.9857011999702081,,,60.0,54.0,38430,60.0,
-77,-77,-45,0,1,1,12,,,,,,,,,,,session,564.5957609000616,156.0,2.0,72.0,0.019781313695318017,4,1.1211347000207752,1.387977399979718,6,1.3508321999106556,1.5507015999173746,1,2.3315948999952525,2.5176246999762952,,,51.0,66.0,38430,60.0,
77,-77,-45,0,2,2,8,,,,,,,,,,,session,576.0771574999671,150.0,2.0,72.0,0.019781313695318017,2,1.8853661000030115,2.118962900014594,0,0.7205667999805883,0.9373532000463456,0,0.44045759993605316,0.6925273999804631,,,69.0,72.0,38430,60.0,
-77,-77,45,0,3,3,14,,,,,,,,,,,session,586.1310024000704,174.0,2.0,72.0,0.019781313695318017,3,0.5083691999316216,0.7509264999534935,0,1.0839725999394432,1.317697299993597,1,1.3339674000162631,1.583616100018844,,,57.0,66.0,38430,60.0,
-77,77,0,0,4,4,5,,,,,,,,,,,session,596.1936647000257,174.0,2.0,72.0,0.019781313695318017,5,1.2431860000360757,1.5096775999991223,6,0.5705258999951184,0.7872874999884516,0,0.4000027999281883,0.6333836999256164,,,51.0,69.0,38430,60.0,
77,77,-45,0,5,5,0,,,,,,,,,,,session,605.510820299969,162.0,2.0,72.0,0.4,5,3.327444800059311,3.5537525000981987,1,1.1127855000086129,1.3273075999459252,7,1.232077099964954,1.4656025000149384,,,57.0,69.0,38430,60.0,
77,77,90,0,6,6,3,,,,,,,,,,,session,618.1589757000329,132.0,2.0,72.0,0.4,5,0.5990550999995321,0.7994024000363424,6,0.5836492000380531,0.7675507999956608,7,0.5518918000161648,0.7520514000207186,,,57.0,48.0,38430,60.0,
-77,77,45,0,7,7,6,,,,,,,,,,,session,625.894317700062,168.0,2.0,72.0,0.019781313695318017,5,1.519939100020565,1.7702118000015616,6,1.2372998000355437,1.5059575999621302,1,1.0378089000005275,1.2387196000199765,,,72.0,54.0,38430,60.0,
77,-77,90,0,8,8,11,,,,,,,,,,,session,636.7728865999961,156.0,2.0,72.0,0.019781313695318017,4,0.9337291000410914,1.2035148999420926,1,1.268144499976188,1.5682438999647275,0,0.746298799989745,0.9769571999786422,,,51.0,69.0,38430,60.0,
77,77,0,0,9,9,1,,,,,,,,,,,session,646.7750999999698,138.0,2.0,72.0,0.019781313695318017,3,1.3466797999572009,1.5815590999554843,1,2.493652299977839,2.691595199983567,0,0.5051041999831796,0.730173800024204,,,72.0,66.0,38430,60.0,
77,77,45,0,10,10,2,,,,,,,,,,,session,657.826434400049,174.0,2.0,72.0,0.019781313695318017,5,1.0390935000032187,1.272770799929276,1,0.6199656999669969,0.8534304000204429,0,0.616090300027281,0.8329591000219807,,,66.0,51.0,38430,60.0,
-77,-77,90,0,11,11,15,,,,,,,,,,,session,667.5584469999885,156.0,2.0,72.0,0.019781313695318017,3,0.7844031000277027,1.0344841999467462,1,0.43961479992140085,0.6719113999279216,0,0.7187653000000864,0.8832811999600381,,,72.0,60.0,38430,60.0,
77,-77,45,0,12,12,10,,,,,,,,,,,session,676.3996046000393,168.0,2.0,72.0,0.019781313695318017,2,0.9403511000564322,1.227786000003107,1,0.7858300000661984,1.0190529000246897,0,0.5350205000722781,0.7508319000480697,,,48.0,63.0,38430,60.0,
-77,77,-45,0,13,13,4,,,,,,,,,,,session,685.9081218000501,162.0,2.0,72.0,0.4,2,0.7804725000169128,1.0144675000337884,1,1.9030880000209436,2.1034585000015795,7,0.48100159992463887,0.7145632000174373,,,60.0,54.0,38430,60.0,
-77,-77,0,0,14,14,13,,,,,,,,,,,session,695.7957274999935,138.0,2.0,72.0,0.4,3,0.7320408999221399,0.9498124999227002,0,0.8576573999598622,1.0742457000305876,7,0.8078335999744013,1.091479399939999,,,48.0,57.0,38430,60.0,
77,-77,0,0,15,15,9,,,,,,,,,,,session,704.4068695000606,180.0,2.0,72.0,0.4,4,0.3135480999480933,0.5305271999677643,0,0.600986700039357,0.8005345999263227,7,0.35007829999085516,0.584557699970901,,,51.0,54.0,38430,60.0,
-77,77,-45,1,0,16,4,,,,,,,,,,,session,712.5440058000386,168.0,2.0,72.0,0.019781313695318017,2,1.3707379999104887,1.553884799941443,0,0.42146870004944503,0.688286800053902,1,1.5325161999789998,1.75093489990104,,,63.0,69.0,38430,60.0,
-77,-77,-45,1,1,17,12,,,,,,,,,,,session,722.9851073999889,174.0,2.0,72.0,0.019781313695318017,2,1.3778514000587165,1.5946860000258312,1,0.3470118000404909,0.5479821000481024,0,0.5330633000703529,0.766334000043571,,,57.0,57.0,38430,60.0,
-77,-77,45,1,2,18,14,,,,,,,,,,,session,732.7937314000446,180.0,2.0,72.0,0.019781313695318017,5,1.1105484999716282,1.2770237000659108,6,0.471568200038746,0.6882764999754727,0,0.3677062999922782,0.5849265999859199,,,57.0,57.0,38430,60.0,
77,77,45,1,3,19,2,,,,,,,,,,,session,741.6808410000522,168.0,2.0,72.0,0.019781313695318017,3,1.3460192999336869,1.5668997999746352,1,0.6181852999143302,0.818622799939476,0,0.5319421000313014,0.7485864000627771,,,60.0,57.0,38430,60.0,
77,77,45,1,3,19,2,,,materials/instructions\12_break.png,751.1376997999614,756.3231259000022,0,5.035235499963164,5.183325299993157,0.021560900029726326,5.1909773000516,,,,,,,,,,,,,,,,,,,,38430,60.0,
-77,77,0,1,4,20,5,,,,,,,,,,,session,756.3386923000216,156.0,2.0,72.0,0.019781313695318017,3,0.7176167999859899,0.9343003999674693,1,0.6159267000621185,0.7827256000600755,0,0.4160751000745222,0.6819881000556052,,,54.0,69.0,38430,60.0,
77,77,0,1,5,21,1,,,,,,,,,,,session,764.8485877000494,150.0,2.0,72.0,0.019781313695318017,5,0.8909964000340551,1.1114066999871284,7,1.0527208000421524,1.2693127000238746,1,0.4654302999842912,0.7328539999434724,,,69.0,57.0,38430,60.0,
77,-77,90,1,6,22,11,,,,,,,,,,,session,774.3251038000453,126.0,2.0,72.0,0.019781313695318017,4,0.8677454999415204,1.1698692999780178,7,0.9430875000543892,1.1407322000013664,1,0.6860065999208018,0.9194513999391347,,,60.0,66.0,38430,60.0,
77,-77,45,1,7,23,10,,,,,,,,,,,session,783.1969161999878,168.0,2.0,72.0,0.019781313695318017,5,0.9034005000721663,1.1034376000752673,1,0.44574880006257445,0.7128915999783203,0,0.5767430999549106,0.798207400017418,,,63.0,54.0,38430,60.0,
-77,77,45,1,8,24,6,,,,,,,,,,,session,792.0447253000457,138.0,2.0,72.0,0.019781313695318017,3,0.7323569000000134,0.9491390000330284,1,0.4520151000469923,0.6356200999580324,0,0.5193294999189675,0.8018781999126077,,,72.0,60.0,38430,60.0,
-77,-77,0,1,9,25,13,,,,,,,,,,,session,800.4432615999831,126.0,2.0,72.0,0.4,3,0.33463130006566644,0.5702142000664026,0,0.5887248000362888,0.8223058000439778,7,0.4842157999519259,0.7177024999400601,,,69.0,51.0,38430,60.0,
77,-77,0,1,10,26,9,,,,,,,,,,,session,808.1002325000009,144.0,2.0,72.0,0.019781313695318017,3,0.7484981999732554,0.9706972999265417,7,1.050140400067903,1.1855013000313193,6,2.3785112000769004,2.578462600009516,,,48.0,57.0,38430,60.0,
77,77,-45,1,11,27,0,,,,,,,,,,,session,818.5090567000443,132.0,2.0,72.0,0.019781313695318017,3,0.5526946999598294,0.786169599974528,6,0.7699358999961987,0.9700688000302762,1,1.1832737000659108,1.4166945000179112,,,72.0,57.0,38430,60.0,
77,-77,-45,1,12,28,8,,,,,,,,,,,session,827.4970321999863,126.0,2.0,72.0,0.019781313695318017,2,1.403677900088951,1.570829200092703,1,0.5797206000424922,0.7226311999838799,0,0.34999639994930476,0.5288106999360025,,,60.0,72.0,38430,60.0,
-77,-77,90,1,13,29,15,,,,,,,,,,,session,836.073984800023,168.0,2.0,72.0,0.019781313695318017,4,0.7090574000030756,0.9593858999432996,6,0.31359289993997663,0.5315287000266835,0,0.35261719999834895,0.5506333999801427,,,51.0,66.0,38430,60.0,
-77,77,90,1,14,30,7,,,,,,,,,,,session,844.4271451999666,168.0,2.0,72.0,0.019781313695318017,4,0.8174983999924734,1.104057600023225,7,0.6021114999894053,0.7856035999720916,0,0.3703271000413224,0.536499600042589,,,63.0,66.0,38430,60.0,
77,77,90,1,15,31,3,,,,,,,,,,,session,853.2507319999859,144.0,2.0,72.0,0.019781313695318017,5,0.5014678000006825,0.7229273000266403,6,0.3174004000611603,0.5183342000236735,0,0.38275629992131144,0.6178086999570951,,,51.0,60.0,38430,60.0,
-77,-77,45,2,0,32,14,,,,,,,,,,,session,861.0452013000613,180.0,2.0,72.0,0.019781313695318017,5,4.3679581000469625,4.551430299994536,1,0.7977259999606758,0.931179599952884,0,0.5176167000317946,0.7178053000243381,,,63.0,48.0,38430,60.0,
-77,-77,-45,2,1,33,12,,,,,,,,,,,session,873.5481625000248,126.0,2.0,72.0,0.019781313695318017,2,1.2828547999961302,1.4811681000282988,1,0.3103678000625223,0.5486348000122234,0,0.531857099966146,0.7786694000242278,,,63.0,57.0,38430,60.0,
77,-77,0,2,2,34,9,,,,,,,,,,,session,881.925783899962,126.0,2.0,72.0,0.019781313695318017,5,0.8657916999654844,1.0829572000075132,1,0.35005549993366003,0.5487737000221387,0,0.5511641000630334,0.7842940000118688,,,57.0,72.0,38430,60.0,
77,77,-45,2,3,35,0,,,,,,,,,,,session,890.0616223000688,156.0,2.0,72.0,0.019781313695318017,3,1.1011962000047788,1.3513802000088617,1,2.487563999951817,2.6877207999350503,0,1.7949264999479055,1.9731827999930829,,,57.0,57.0,38430,60.0,
-77,77,-45,2,4,36,4,,,,,,,,,,,session,902.024074899964,174.0,2.0,72.0,0.019781313695318017,2,0.4339316999539733,0.6362497999798506,1,0.6953958000522107,0.8996635000221431,1,2.752777799963951,2.9529500999487936,,,57.0,51.0,38430,60.0,
-77,-77,0,2,5,37,13,,,,,,,,,,,session,912.8624049000209,162.0,2.0,72.0,0.019781313695318017,4,0.4342879999894649,0.6673183999955654,6,0.33787059993483126,0.5067231999710202,0,0.40022760001011193,0.5840225999709219,,,60.0,51.0,38430,60.0,
77,77,45,2,6,38,2,,,,,,,,,,,session,920.6173087999923,150.0,2.0,72.0,0.4,5,0.3302067000186071,0.5450433999067172,7,0.9394481000490487,1.1539072000887245,6,1.7656061000889167,1.9629934000549838,,,69.0,54.0,38430,60.0,
-77,77,90,2,7,39,7,,,,,,,,,,,session,930.9284183999989,180.0,2.0,72.0,0.019781313695318017,5,1.0505387000739574,1.2175349000608549,1,0.38834760000463575,0.6040400000056252,0,1.5373904999578372,1.7192201999714598,,,54.0,63.0,38430,60.0,
-77,77,90,2,7,39,7,,,materials/instructions\12_break.png,940.8943791000638,949.4576227000216,0,8.244444800075144,8.56122959998902,0.023017100058496,8.568552799988538,,,,,,,,,,,,,,,,,,,,38430,60.0,
77,-77,-45,2,8,40,8,,,,,,,,,,,session,949.4735606999602,144.0,2.0,72.0,0.019781313695318017,3,1.4577269000001252,1.6078275999752805,1,0.4374843999976292,0.604669899912551,0,0.7012149000074714,0.8679596000583842,,,57.0,54.0,38430,60.0,
77,-77,90,2,9,41,11,,,,,,,,,,,session,958.2625091000227,150.0,2.0,72.0,0.019781313695318017,5,0.4843904000008479,0.7010795000242069,6,0.3528706000652164,0.5538097000680864,0,0.5165570999961346,0.7008114999625832,,,63.0,51.0,38430,60.0,
77,77,90,2,10,42,3,,,,,,,,,,,session,966.0696234999923,126.0,2.0,72.0,0.019781313695318017,5,1.9450066999997944,2.145055500091985,1,0.3653026999672875,0.5489211999811232,0,0.5020318999886513,0.7358335999306291,,,66.0,72.0,38430,60.0,
77,-77,45,2,11,43,10,,,,,,,,,,,session,975.9776848000474,126.0,2.0,72.0,0.019781313695318017,5,0.8678644000319764,1.068227400071919,6,0.5024081999436021,0.7523696999996901,0,0.3538148000370711,0.5718357000732794,,,51.0,54.0,38430,60.0,
-77,77,0,2,12,44,5,,,,,,,,,,,session,983.6664602999808,162.0,2.0,72.0,0.4,2,0.3876866000937298,0.5702843000181019,0,0.4900768999941647,0.6619719000300393,6,0.46823900006711483,0.6681041000410914,,,60.0,69.0,38430,60.0,
77,77,0,2,13,45,1,,,,,,,,,,,session,991.8458200000459,180.0,2.0,72.0,0.019781313695318017,3,1.4179135999875143,1.6017156000016257,7,0.3854536999715492,0.6022462999681011,0,0.5356541000073776,0.7866595999803394,,,54.0,48.0,38430,60.0,
-77,-77,90,2,14,46,15,,,,,,,,,,,session,1000.9961986000417,150.0,2.0,72.0,0.019781313695318017,4,1.0572996999835595,1.2883267999859527,6,0.3214449000079185,0.5372147000161931,0,0.3979067000327632,0.6814505000365898,,,63.0,60.0,38430,60.0,
-77,77,45,2,15,47,6,,,,,,,,,,,session,1009.5022276999662,150.0,2.0,72.0,0.019781313695318017,2,1.0772909000515938,1.2938116000732407,7,1.4863530000438914,1.7030194000108168,1,0.9526575000490993,1.169558999943547,,,63.0,60.0,38430,60.0,
77,77,90,3,0,48,3,,,,,,,,,,,session,1020.3113171999576,132.0,2.0,72.0,0.019781313695318017,2,1.234429300064221,1.5015371000627056,0,0.35057579993736,0.5841604999732226,0,0.3169542000396177,0.6011370000196621,,,51.0,51.0,38430,60.0,
77,-77,0,3,1,49,9,,,,,,,,,,,session,1028.3516550000058,150.0,2.0,72.0,0.019781313695318017,4,0.867111700004898,1.2260069000767544,1,0.27999159996397793,0.5417297999374568,0,0.34733440005220473,0.6307253000559285,,,60.0,69.0,38430,60.0,
-77,77,90,3,2,50,7,,,,,,,,,,,session,1036.8641195000382,150.0,2.0,72.0,0.4,2,0.2997401000466198,0.5476829999824986,6,0.3453395999968052,0.5601002000039443,7,1.0358202999923378,1.2193214000435546,,,72.0,69.0,38430,60.0,
77,77,-45,3,3,51,0,,,,,,,,,,,session,1045.4970562000526,180.0,2.0,72.0,0.019781313695318017,2,1.7790373000316322,1.9795306000160053,1,0.33638420002534986,0.585397099959664,0,0.6285146999871358,0.8717002000194043,,,51.0,63.0,38430,60.0,
-77,-77,90,3,4,52,15,,,,,,,,,,,session,1055.3565766999964,150.0,2.0,72.0,0.019781313695318017,2,0.9031940000131726,1.070418499992229,1,0.3409728000406176,0.5602477999636903,0,0.6867460000794381,0.8879536000313237,,,66.0,57.0,38430,60.0,
-77,-77,0,3,5,53,13,,,,,,,,,,,session,1064.3817426000023,126.0,2.0,72.0,0.019781313695318017,2,1.0357919000089169,1.252770199906081,1,0.9576449999585748,1.1569767000619322,0,1.69968879991211,1.8673998999875039,,,48.0,60.0,38430,60.0,
77,-77,-45,3,6,54,8,,,,,,,,,,,session,1074.019525700016,180.0,2.0,72.0,0.019781313695318017,4,0.3458668999373913,0.6153011999558657,1,0.8002412000205368,0.9309191999491304,1,0.5488966000266373,0.7333730000536889,,,60.0,60.0,38430,60.0,
-77,77,0,3,7,55,5,,,,,,,,,,,session,1083.1790192000335,150.0,2.0,72.0,0.019781313695318017,3,1.5496482000453398,1.800878900103271,6,0.7028605999657884,0.886387399979867,0,0.4040316001046449,0.6198229000438005,,,48.0,57.0,38430,60.0,
77,-77,45,3,8,56,10,,,,,,,,,,,session,1092.1823810000205,126.0,2.0,72.0,0.019781313695318017,3,1.1530383999925107,1.3532143000047654,1,0.3206316001014784,0.5373055000090972,0,0.641120299929753,0.8628656000364572,,,57.0,60.0,38430,60.0,
-77,-77,-45,3,9,57,12,,,,,,,,,,,session,1100.4464092999697,144.0,2.0,72.0,0.019781313695318017,3,0.44390209997072816,0.7939682999858633,1,1.7479745999444276,1.9479702999815345,1,0.36851699999533594,0.5361611000262201,,,54.0,51.0,38430,60.0,
-77,77,45,3,10,58,6,,,,,,,,,,,session,1109.6332145000342,168.0,2.0,72.0,0.019781313695318017,5,1.0471887999447063,1.296650999924168,6,0.5920302000595257,0.7904177000746131,0,0.35417859989684075,0.5688315998995677,,,57.0,51.0,38430,60.0,
-77,-77,45,3,11,59,14,,,,,,,,,,,session,1118.3350422000512,126.0,2.0,72.0,0.019781313695318017,3,0.6993937999941409,0.8546546000288799,7,0.4324085999978706,0.6326721999794245,1,0.4013786999275908,0.5707471999339759,,,57.0,48.0,38430,60.0,
-77,-77,45,3,11,59,14,,,materials/instructions\12_break.png,1125.805185800069,1131.0930378000485,0,5.102355999988504,5.2858179999748245,0.020094200037419796,5.293641899945214,,,,,,,,,,,,,,,,,,,,38430,60.0,
-77,77,-45,3,12,60,4,,,,,,,,,,,session,1131.1090123000322,132.0,2.0,72.0,0.019781313695318017,2,1.083517000079155,1.2493164000334218,1,0.5032076999777928,0.6915693000191823,0,0.33149459993001074,0.5143264000071213,,,66.0,54.0,38430,60.0,
77,77,45,3,13,61,2,,,,,,,,,,,session,1139.2196341999806,156.0,2.0,72.0,0.019781313695318017,5,0.7236881999997422,0.8626032000174746,7,1.846981499926187,2.0528548000147566,1,0.3193160999799147,0.5026359000476077,,,48.0,57.0,38430,60.0,
77,77,0,3,14,62,1,,,,,,,,,,,session,1148.4302688000025,144.0,2.0,72.0,0.019781313695318017,5,0.8673202000791207,1.0691467000870034,1,0.46826879994478077,0.7516126999398693,1,0.3516275999136269,0.551761299953796,,,51.0,60.0,38430,60.0,
77,-77,90,3,15,63,11,,,,,,,,,,,session,1156.5139717999846,156.0,2.0,72.0,0.019781313695318017,3,0.9654975000303239,1.2657623999984935,1,0.2876074999803677,0.4378063000040129,0,0.685227100038901,0.8354912999784574,,,57.0,51.0,38430,60.0,
-77,77,45,4,0,64,6,,,,,,,,,,,session,1164.9031727999682,180.0,2.0,72.0,0.019781313695318017,2,0.7813496999442577,0.8981198999099433,7,0.581264500040561,0.78087549994234,1,2.1526665999554098,2.3526493000099435,,,69.0,63.0,38430,60.0,
-77,77,-45,4,1,65,4,,,,,,,,,,,session,1176.129569599987,132.0,2.0,72.0,0.019781313695318017,3,1.197094300063327,1.380622599972412,7,0.6027371999807656,0.8686656999634579,0,0.3006511999992654,0.5173104000277817,,,69.0,69.0,38430,60.0,
-77,-77,-45,4,2,66,12,,,,,,,,,,,session,1184.8689949000254,150.0,2.0,72.0,0.019781313695318017,4,1.1514889999525622,1.4351907999953255,1,0.29903799993917346,0.46573349996469915,0,0.33331999997608364,0.5166689000325277,,,54.0,54.0,38430,60.0,
77,-77,90,4,3,67,11,,,,,,,,,,,session,1193.428789800033,156.0,2.0,72.0,0.019781313695318017,4,0.8335328999673948,1.1171005999203771,1,0.28444620000664145,0.46687999996356666,0,0.5834609000012279,0.7836433000629768,,,72.0,48.0,38430,60.0,
77,77,45,4,4,68,2,,,,,,,,,,,session,1201.8486975000706,132.0,2.0,72.0,0.019781313695318017,5,0.7040345000568777,0.8694095000391826,7,1.156763199949637,1.3871814999729395,1,2.293369899969548,2.4642860000021756,,,57.0,60.0,38430,60.0,
-77,77,0,4,5,69,5,,,,,,,,,,,session,1212.1649147999706,174.0,2.0,72.0,0.019781313695318017,3,0.9599386999616399,1.2603699000319466,0,0.6706040999852121,0.8540123999118805,1,2.3697424998972565,2.537289100000635,,,69.0,57.0,38430,60.0,
77,-77,-45,4,6,70,8,,,,,,,,,,,session,1223.282516599982,174.0,2.0,72.0,0.019781313695318017,4,0.869599899975583,1.119718199945055,6,0.26945439993869513,0.45522459992207587,0,0.3247197000309825,0.5080556999891996,,,69.0,69.0,38430,60.0,
77,-77,0,4,7,71,9,,,,,,,,,,,session,1232.005052600056,156.0,2.0,72.0,0.019781313695318017,4,0.501533400034532,0.8339201000053436,0,1.590869399951771,1.7410708999959752,1,0.5380505999783054,0.7548118999693543,,,54.0,63.0,38430,60.0,
-77,77,90,4,8,72,7,,,,,,,,,,,session,1241.8805883000605,150.0,2.0,72.0,0.4,2,1.2385320999892429,1.4055242999456823,6,0.604201800073497,0.7877129999687895,7,0.47110590001102537,0.6877262000925839,,,51.0,66.0,38430,60.0,
-77,-77,0,4,9,73,13,,,,,,,,,,,session,1250.6560210000025,132.0,2.0,72.0,0.019781313695318017,3,1.3094224000815302,1.4806328000267968,6,0.3291645999997854,0.529485399951227,1,0.3505922000622377,0.5172981000505388,,,48.0,54.0,38430,60.0,
-77,-77,90,4,10,74,15,,,,,,,,,,,session,1258.6959815999726,174.0,2.0,72.0,0.019781313695318017,4,1.2338128000264987,1.4172676000744104,1,0.30122680007480085,0.46787679998669773,0,0.3189289999427274,0.48649119993206114,,,57.0,63.0,38430,60.0,
77,77,0,4,11,75,1,,,,,,,,,,,session,1267.4170235999627,132.0,2.0,72.0,0.019781313695318017,5,1.505239599966444,1.623053100076504,7,0.3396897000493482,0.3568215999985114,0,0.303235900006257,0.5033449999755248,,,72.0,57.0,38430,60.0,
77,77,-45,4,12,76,0,,,,,,,,,,,session,1275.689406099962,156.0,2.0,72.0,0.019781313695318017,5,0.8795008000452071,1.0597124999621883,1,0.723317600088194,0.9237566000083461,0,0.41398409998510033,0.6132920999079943,,,63.0,54.0,38430,60.0,
-77,-77,45,4,13,77,14,,,,,,,,,,,session,1284.9298094999976,156.0,2.0,72.0,0.019781313695318017,4,1.5695560000604019,1.7696993000572547,1,0.36111470009200275,0.5936615000246093,0,0.41654279991053045,0.6665150999324396,,,57.0,57.0,38430,60.0,
77,-77,45,4,14,78,10,,,,,,,,,,,session,1293.9019804999698,144.0,2.0,72.0,0.4,4,0.392600099905394,0.6020429999334738,7,1.2344506999943405,1.4301413000794128,6,1.015596800018102,1.1990229999646544,,,66.0,54.0,38430,60.0,
77,77,90,4,15,79,3,,,,,,,,,,,session,1302.9996103000594,162.0,2.0,72.0,0.019781313695318017,4,1.2499666000949219,1.4667099000653252,6,0.30171819997485727,0.4687221999047324,0,0.38724690000526607,0.6708328999811783,,,63.0,72.0,38430,60.0,
77,77,90,4,15,79,3,,,materials/instructions\12_break.png,1312.0461603000294,1318.7349764000392,0,6.486485800007358,6.686669600079767,0.021053999895229936,6.694506199914031,,,,,,,,,,,,,,,,,,,,38430,60.0,
77,-77,45,5,0,80,10,,,,,,,,,,,session,1318.7502857999643,132.0,2.0,72.0,0.019781313695318017,4,0.5980267999693751,0.8303164000390097,7,0.8027528999373317,1.0193820999702439,1,2.7968703999649733,2.963508000015281,,,66.0,48.0,38430,60.0,
-77,77,-45,5,1,81,4,,,,,,,,,,,session,1329.6809075999772,174.0,2.0,72.0,0.4,2,0.35985789995174855,0.5934878999833018,1,0.917959599988535,1.1169436000054702,6,0.5494548999704421,0.7687681999523193,,,57.0,72.0,38430,60.0,
-77,77,90,5,2,82,7,,,,,,,,,,,session,1338.6730008999584,150.0,2.0,72.0,0.019781313695318017,4,0.49933949997648597,0.7159192999824882,6,0.31485460000112653,0.5312496999977157,0,0.46761070005595684,0.7331232000142336,,,51.0,63.0,38430,60.0,
-77,-77,-45,5,3,83,12,,,,,,,,,,,session,1346.6986933000153,132.0,2.0,72.0,0.019781313695318017,3,0.5828610999742523,0.8162125999806449,1,1.333849300048314,1.4849785000551492,1,1.7189615999814123,1.8879063000204042,,,60.0,72.0,38430,60.0,
-77,77,0,5,4,84,5,,,,,,,,,,,session,1356.7534075999865,168.0,2.0,72.0,0.019781313695318017,2,0.7774752000113949,0.961143699940294,0,0.31968429998960346,0.5197800999740139,1,0.7604654000606388,0.9598240000195801,,,69.0,51.0,38430,60.0,
77,77,0,5,5,85,1,,,,,,,,,,,session,1365.4445964000188,138.0,2.0,72.0,0.019781313695318017,2,1.2643816999625415,1.4320982999633998,0,0.8993097000056878,1.0659467000514269,0,0.45885139994788915,0.6568669000407681,,,48.0,66.0,38430,60.0,
77,77,90,5,6,86,3,,,,,,,,,,,session,1374.583431200008,162.0,2.0,72.0,0.019781313695318017,5,1.0714408999774605,1.2714887000620365,1,0.6396727999672294,0.8383079000050202,0,0.35440930002368987,0.5362774999812245,,,57.0,60.0,38430,60.0,
-77,-77,45,5,7,87,14,,,,,,,,,,,session,1383.3239107000409,144.0,2.0,72.0,0.019781313695318017,5,1.5369677999988198,1.6878354999935254,1,0.36734330002218485,0.5833854000084102,0,0.24838349991478026,0.4483870000112802,,,51.0,63.0,38430,60.0,
-77,77,45,5,8,88,6,,,,,,,,,,,session,1391.9637430000585,126.0,2.0,72.0,0.019781313695318017,2,1.2834628999698907,1.48369439993985,6,0.751070800004527,0.9358654000097886,0,0.44963000004645437,0.6331227000337094,,,66.0,48.0,38430,60.0,
-77,-77,90,5,9,89,15,,,,,,,,,,,session,1400.466883199988,132.0,2.0,72.0,0.4,3,0.3856961999554187,0.5858158000046387,6,0.29663340002298355,0.4962531999917701,7,0.35507250006776303,0.6042874000268057,,,54.0,60.0,38430,60.0,
77,-77,-45,5,10,90,8,,,,,,,,,,,session,1407.7067972000223,138.0,2.0,72.0,0.019781313695318017,4,0.5641229000175372,0.9108300999505445,1,0.3045129000674933,0.4884065000806004,0,0.406538600102067,0.6222347000148147,,,63.0,48.0,38430,60.0,
77,77,45,5,11,91,2,,,,,,,,,,,session,1416.0501385000534,150.0,2.0,72.0,0.4,5,0.011466800002381206,0.21457119996193796,7,1.156293399981223,1.4064719999441877,6,0.5672437999164686,0.7495053999591619,,,57.0,66.0,38430,60.0,
77,-77,0,5,12,92,9,,,,,,,,,,,session,1424.433135600062,144.0,2.0,72.0,0.019781313695318017,2,0.8165561000350863,0.9830685999477282,1,0.36015199997927994,0.5269328999565914,0,0.2737137000076473,0.44554089999292046,,,57.0,48.0,38430,60.0,
77,-77,90,5,13,93,11,,,,,,,,,,,session,1432.0170484000118,168.0,2.0,72.0,0.4,4,0.21562569995876402,0.3656734999967739,6,0.32266129995696247,0.4394058999605477,7,0.37317040003836155,0.5382386000128463,,,48.0,54.0,38430,60.0,
-77,-77,0,5,14,94,13,,,,,,,,,,,session,1439.6151806999696,156.0,2.0,72.0,0.019781313695318017,2,1.0614854000741616,1.1948707000119612,6,0.30863010010216385,0.5051852000178769,0,0.4372824999736622,0.6375043999869376,,,57.0,48.0,38430,60.0,
77,77,-45,5,15,95,0,,,,,,,,,,,session,1447.7372361000162,126.0,2.0,72.0,0.019781313695318017,2,1.1700141000328586,1.3533296000678092,1,0.34848539996892214,0.5933975999942049,0,0.7458531999727711,1.0130546999862418,,,54.0,54.0,38430,60.0,
-77,-77,45,6,0,96,14,,,,,,,,,,,session,1456.068165600067,180.0,2.0,72.0,0.019781313695318017,5,0.3831942999968305,0.6666677999310195,6,0.01136100001167506,0.051457200082950294,0,0.3644946999847889,0.5810952000319958,,,48.0,48.0,38430,60.0,
77,-77,90,6,1,97,11,,,,,,,,,,,session,1463.4322620000457,144.0,2.0,72.0,0.019781313695318017,5,0.8861110999714583,1.1028935000067577,0,0.33430630003567785,0.5499441000865772,0,1.0533293000189587,1.2197325999150053,,,51.0,69.0,38430,60.0,
-77,-77,0,6,2,98,13,,,,,,,,,,,session,1472.1559014000231,138.0,2.0,72.0,0.4,3,0.010826700017787516,0.012714699958451092,0,0.6158079999731854,0.786296600010246,6,0.4498447999358177,0.7328944000182673,,,66.0,63.0,38430,60.0,
77,-77,45,6,3,99,10,,,,,,,,,,,session,1479.9306598000694,180.0,2.0,72.0,0.019781313695318017,5,1.0830258999485523,1.3163433999288827,6,0.3038951000198722,0.4875459000468254,0,0.3697096999967471,0.5863017999799922,,,57.0,60.0,38430,60.0,
77,-77,45,6,3,99,10,,,materials/instructions\12_break.png,1488.7515338000376,1500.0086143000517,0,11.075694800005294,11.255070500075817,0.01713479997124523,11.266725599998608,,,,,,,,,,,,,,,,,,,,38430,60.0,
77,-77,-45,6,4,100,8,,,,,,,,,,,session,1500.0286863000365,126.0,2.0,72.0,0.4,4,0.010808899998664856,0.1807404999854043,1,1.163924299995415,1.3306956000160426,6,0.6023869999917224,0.785764200030826,,,69.0,60.0,38430,60.0,
-77,77,-45,6,5,101,4,,,,,,,,,,,session,1508.0165596000152,144.0,2.0,72.0,0.019781313695318017,3,0.45226749998982996,0.7207609999459237,1,1.3019666000036523,1.5185881000943482,1,0.6842457000166178,0.8815707000903785,,,60.0,69.0,38430,60.0,
-77,-77,90,6,6,102,15,,,,,,,,,,,session,1517.1381642000051,150.0,2.0,72.0,0.019781313695318017,3,0.5736905999947339,0.8615787000162527,1,0.3498251000419259,0.536029800074175,0,0.25157020008191466,0.45167249999940395,,,57.0,48.0,38430,60.0,
-77,77,90,6,7,103,7,,,,,,,,,,,session,1525.3152092000237,138.0,2.0,72.0,0.019781313695318017,3,0.8003504999214783,1.000118299969472,1,0.3506762000033632,0.5340860000578687,0,0.1319449000293389,0.3487494000000879,,,60.0,69.0,38430,60.0,
-77,77,0,6,8,104,5,,,,,,,,,,,session,1533.1024155999767,156.0,2.0,72.0,0.019781313695318017,4,0.6157006000867113,0.8005467000184581,6,0.5192719000624493,0.6860297999810427,0,0.3398911999538541,0.567668000003323,,,63.0,60.0,38430,60.0,
77,77,0,6,9,105,1,,,,,,,,,,,session,1541.262127300026,168.0,2.0,72.0,0.019781313695318017,5,1.1130010000197217,1.2810634999768808,6,0.3032831000164151,0.5364498000126332,0,0.38326429994776845,0.6345081999897957,,,57.0,48.0,38430,60.0,
77,77,90,6,10,106,3,,,,,,,,,,,session,1550.3344944999553,168.0,2.0,72.0,0.019781313695318017,5,1.135757900075987,1.3526278000790626,1,0.3117329999804497,0.5286545000271872,0,0.3686583999078721,0.5854736999608576,,,72.0,69.0,38430,60.0,
77,77,-45,6,11,107,0,,,,,,,,,,,session,1559.3912654999876,180.0,2.0,72.0,0.019781313695318017,5,1.2182816999265924,1.3952104999916628,1,0.2673583999276161,0.4806224999483675,0,0.3526736000785604,0.5857856000075117,,,69.0,63.0,38430,60.0,
-77,77,45,6,12,108,6,,,,,,,,,,,session,1568.8487426000647,180.0,2.0,72.0,0.019781313695318017,2,1.2487570999655873,1.4336340998997912,1,0.48416839994024485,0.6674864999949932,0,0.666203900007531,0.8830527999671176,,,60.0,48.0,38430,60.0,
77,77,45,6,13,109,2,,,,,,,,,,,session,1578.069845500053,150.0,2.0,72.0,0.019781313695318017,5,0.7203921000473201,0.8537865999387577,7,0.9876808000262827,1.1035259999334812,1,0.595722800004296,0.8121089999331161,,,57.0,69.0,38430,60.0,
77,-77,0,6,14,110,9,,,,,,,,,,,session,1586.901374500012,144.0,2.0,72.0,0.019781313695318017,2,0.7195585999870673,0.9194489999208599,1,0.3351826999569312,0.5185896999901161,0,0.33821269997861236,0.5711928999517113,,,63.0,60.0,38430,60.0,
-77,-77,-45,6,15,111,12,,,,,,,,,,,session,1595.0181705000577,180.0,2.0,72.0,0.019781313695318017,3,0.7853114999597892,0.968239999958314,1,0.30518789996858686,0.5725608000066131,0,0.6173499000724405,0.8186479000141844,,,51.0,66.0,38430,60.0,
-77,-77,45,7,0,112,14,,,,,,,,,,,session,1603.7728699999861,144.0,2.0,72.0,0.4,3,0.4178690999979153,0.6357307999860495,7,1.2342652000952512,1.3174791000783443,6,0.36593640001956373,0.5158503000857309,,,48.0,72.0,38430,60.0,
77,77,0,7,1,113,1,,,,,,,,,,,session,1612.1493739000289,126.0,2.0,72.0,0.019781313695318017,4,1.0982141999993473,1.331287999986671,6,0.3012773999944329,0.48419660003855824,0,1.0539690000005066,1.2216149000450969,,,66.0,63.0,38430,60.0,
-77,77,-45,7,2,114,4,,,,,,,,,,,session,1620.9025867000455,144.0,2.0,72.0,0.4,2,0.06685889989603311,0.2698673999402672,1,0.7019043000182137,0.8850476000225171,7,0.3351349999429658,0.5163550999714062,,,51.0,66.0,38430,60.0,
77,-77,0,7,3,115,9,,,,,,,,,,,session,1628.375855899998,138.0,2.0,72.0,0.4,4,0.3978682999731973,0.5637644999660552,0,0.5058610000414774,0.8052840000018477,7,0.4141576999099925,0.5283589999889955,,,51.0,57.0,38430,60.0,
77,77,90,7,4,116,3,,,,,,,,,,,session,1636.6480777000543,144.0,2.0,72.0,0.019781313695318017,2,1.2531916999723762,1.402504500001669,1,0.40460050001274794,0.5715055000036955,0,0.6835409000050277,0.9337052999762818,,,54.0,57.0,38430,60.0,
77,-77,90,7,5,117,11,,,,,,,,,,,session,1645.2878857000032,162.0,2.0,72.0,0.4,4,0.38518039998598397,0.5688154000090435,6,0.25548729998990893,0.40563279995694757,7,0.2279722000239417,0.4731692000059411,,,69.0,66.0,38430,60.0,
-77,77,45,7,6,118,6,,,,,,,,,,,session,1653.1306166000431,144.0,2.0,72.0,0.4,2,0.011201499961316586,0.08465209999121726,7,0.9786086999811232,1.2451435000402853,7,0.40443670004606247,0.6377212000079453,,,60.0,66.0,38430,60.0,
-77,77,90,7,7,119,7,,,,,,,,,,,session,1661.3166769000236,150.0,2.0,72.0,0.019781313695318017,2,0.9510618998901919,1.1178626999026164,6,0.5996275000507012,0.7998817000770941,1,0.41924149997066706,0.6028173000086099,,,54.0,69.0,38430,60.0,
-77,77,90,7,7,119,7,,,materials/instructions\12_break.png,1669.872678100015,1680.8981059000362,0,10.839909699978307,11.023435299983248,0.017835100064985454,11.0310513000004,,,,,,,,,,,,,,,,,,,,38430,60.0,
-77,-77,90,7,8,120,15,,,,,,,,,,,session,1680.914096900029,150.0,2.0,72.0,0.019781313695318017,5,1.0898711000336334,1.2752577000064775,1,0.3481547998962924,0.5835895999334753,0,0.3139966999879107,0.6142825999995694,,,51.0,63.0,38430,60.0,
77,77,-45,7,9,121,0,,,,,,,,,,,session,1689.2536235000007,168.0,2.0,72.0,0.019781313695318017,5,0.5654705999186262,0.799125999910757,6,0.09620090003591031,0.3302604000782594,0,0.2116471000481397,0.5149035999784246,,,63.0,60.0,38430,60.0,
-77,-77,-45,7,10,122,12,,,,,,,,,,,session,1697.2856160000665,174.0,2.0,72.0,0.019781313695318017,4,0.41387539997231215,0.6796405999921262,1,0.3146287000272423,0.5319547000108287,0,0.5526486000744626,0.8500013999873772,,,48.0,69.0,38430,60.0,
-77,77,0,7,11,123,5,,,,,,,,,,,session,1705.8656850999687,174.0,2.0,72.0,0.019781313695318017,5,0.4240434999810532,0.6413165000267327,1,0.3601470000576228,0.5936286000069231,0,0.43001060001552105,0.6500381999649107,,,48.0,60.0,38430,60.0,
77,77,45,7,12,124,2,,,,,,,,,,,session,1713.9084267000435,162.0,2.0,72.0,0.019781313695318017,5,0.6167867999756709,0.8391639000037685,1,0.4824969999026507,0.7277223999844864,0,0.34731840004678816,0.5682316001038998,,,60.0,57.0,38430,60.0,
77,-77,45,7,13,125,10,,,,,,,,,,,session,1722.1871525000315,150.0,2.0,72.0,0.019781313695318017,4,0.4264162000035867,0.6248881999636069,1,0.4039712999947369,0.637457299977541,0,0.46812460001092404,0.7218819999834523,,,54.0,51.0,38430,60.0,
77,-77,-45,7,14,126,8,,,,,,,,,,,session,1729.872126400005,168.0,2.0,72.0,0.019781313695318017,4,0.6829919000156224,0.8998238999629393,1,0.31987010000739247,0.6029631999554113,0,0.5486210999079049,0.9157485999166965,,,54.0,51.0,38430,60.0,
-77,-77,0,7,15,127,13,,,,,,,,,,,session,1738.2923013999825,174.0,2.0,72.0,0.4,3,0.036260200082324445,0.37448009999934584,0,0.3545717999804765,0.6519562000175938,7,0.33177529997192323,0.5816324999323115,,,72.0,60.0,38430,60.0,
77,77,90,8,0,128,3,,,,,,,,,,,session,1747.1004710000707,138.0,2.0,72.0,0.019781313695318017,3,0.7212761000264436,0.9719610000029206,1,0.3716349999886006,0.5735310999443755,0,1.5886230999603868,1.855427599977702,,,48.0,51.0,38430,60.0,
-77,77,45,8,1,129,6,,,,,,,,,,,session,1755.8910491999704,156.0,2.0,72.0,0.4,2,0.01101849996484816,0.21903249993920326,7,0.48696360003668815,0.7194048999808729,6,0.312688099918887,0.529190499917604,,,51.0,51.0,38430,60.0,
-77,-77,0,8,2,130,13,,,,,,,,,,,session,1763.1198444999754,138.0,2.0,72.0,0.019781313695318017,4,0.4695514999330044,0.7358646999346092,1,0.32069330010563135,0.5211620000191033,0,0.5191545000998303,0.766954299993813,,,63.0,66.0,38430,60.0,
77,77,-45,8,3,131,0,,,,,,,,,,,session,1771.3506763000041,174.0,2.0,72.0,0.019781313695318017,4,0.5355914999963716,0.8035598000278696,1,0.30555819999426603,0.5056865999940783,0,1.05199510010425,1.2696267000865191,,,69.0,48.0,38430,60.0,
77,-77,-45,8,4,132,8,,,,,,,,,,,session,1780.2258611000143,144.0,2.0,72.0,0.4,4,0.011159099987708032,0.013098499970510602,1,0.4891205000458285,0.6891518000047654,7,0.3294061999768019,0.612907400005497,,,48.0,66.0,38430,60.0,
77,77,45,8,5,133,2,,,,,,,,,,,session,1787.2993622999638,126.0,2.0,72.0,0.019781313695318017,5,0.8843026000540704,1.0996385000180453,6,0.33516130002681166,0.6348995000589639,0,0.4358305000932887,0.6701963000232354,,,63.0,69.0,38430,60.0,
-77,77,-45,8,6,134,4,,,,,,,,,,,session,1795.4871745000128,180.0,2.0,72.0,0.4,2,0.010869899997487664,0.012779499986208975,1,0.5373396000359207,0.7374369000317529,7,0.6487018999177963,0.8992606999818236,,,51.0,66.0,38430,60.0,
77,-77,90,8,7,135,11,,,,,,,,,,,session,1803.5425609999802,138.0,2.0,72.0,0.019781313695318017,4,0.5109630000079051,0.7270903000608087,1,0.28683779994025826,0.520017399918288,0,0.481599000049755,0.7002488999860361,,,72.0,66.0,38430,60.0,
77,-77,45,8,8,136,10,,,,,,,,,,,session,1811.837497600005,150.0,2.0,72.0,0.019781313695318017,4,0.5654270999366418,0.7981612000148743,1,0.3335846000118181,0.5514763999963179,0,0.39934540004469454,0.683816900011152,,,66.0,63.0,38430,60.0,
-77,77,90,8,9,137,7,,,,,,,,,,,session,1819.9701863999944,168.0,2.0,72.0,0.4,2,0.011453699902631342,0.06710499990731478,6,0.3721119000110775,0.5875282000051811,7,0.5584396000485867,0.8252181001007557,,,66.0,69.0,38430,60.0,
-77,-77,45,8,10,138,14,,,,,,,,,,,session,1827.9430645999964,132.0,2.0,72.0,0.019781313695318017,5,0.8386666999431327,1.0196060999296606,1,0.44886380003299564,0.6484188999747857,0,0.7277913000434637,0.9615740000735968,,,48.0,57.0,38430,60.0,
-77,-77,90,8,11,139,15,,,,,,,,,,,session,1836.4030542999972,168.0,2.0,72.0,0.019781313695318017,4,0.5531340999295935,0.7530752000166103,1,0.45004709996283054,0.6666959999129176,0,0.6063633000012487,0.9055098000681028,,,48.0,63.0,38430,60.0,
-77,-77,90,8,11,139,15,,,materials/instructions\12_break.png,1844.8484636000358,1852.1161724000704,0,7.009900100063533,7.265203700051643,0.02528659999370575,7.272804399952292,,,,,,,,,,,,,,,,,,,,38430,60.0,
77,77,0,8,12,140,1,,,,,,,,,,,session,1852.1317161000334,138.0,2.0,72.0,0.019781313695318017,5,0.30067389993928373,0.5173088998999447,0,0.5064646999817342,0.7393720999825746,1,0.3212039000354707,0.5047431000275537,,,60.0,60.0,38430,60.0,
77,-77,0,8,13,141,9,,,,,,,,,,,session,1859.8547376999632,174.0,2.0,72.0,0.019781313695318017,2,1.1193059000652283,1.3498698000330478,1,0.4248766000382602,0.6079439000459388,0,0.39410130004398525,0.6459846999496222,,,48.0,72.0,38430,60.0,
-77,77,0,8,14,142,5,,,,,,,,,,,session,1868.808851000038,138.0,2.0,72.0,0.4,2,0.010834099957719445,0.10259569995105267,0,0.3834010000573471,0.6649384000338614,7,0.32956980005837977,0.565418100100942,,,69.0,54.0,38430,60.0,
-77,-77,-45,8,15,143,12,,,,,,,,,,,session,1875.940139299957,156.0,2.0,72.0,0.019781313695318017,4,0.8273257999680936,1.1105368999997154,1,0.7234463000204414,0.9555921999271959,0,0.6348272000905126,0.9182964999927208,,,57.0,57.0,38430,60.0,
-77,-77,90,9,0,144,15,,,,,,,,,,,session,1884.870821599965,156.0,2.0,72.0,0.019781313695318017,3,0.48877639998681843,0.7406068999553099,1,0.2883341000415385,0.48977570002898574,0,0.2890505000250414,0.5056688999757171,,,66.0,48.0,38430,60.0,
-77,77,0,9,1,145,5,,,,,,,,,,,session,1892.5438666000264,150.0,2.0,72.0,0.019781313695318017,2,0.6761933999368921,0.8632270999951288,0,0.32419479999225587,0.5406780000776052,1,0.6846320999320596,1.0347248999169096,,,66.0,51.0,38430,60.0,
-77,-77,45,9,2,146,14,,,,,,,,,,,session,1901.3841758000199,126.0,2.0,72.0,0.019781313695318017,2,0.966693599941209,1.185503299930133,1,0.3535321999806911,0.5213525999570265,0,0.3202793000964448,0.8549282000167295,,,60.0,51.0,38430,60.0,
77,77,0,9,3,147,1,,,,,,,,,,,session,1909.3393387000542,162.0,2.0,72.0,0.019781313695318017,3,1.0438054000260308,1.2610754000488669,6,0.3577439000364393,0.6076710000634193,0,0.31706469994969666,0.4952853999566287,,,48.0,69.0,38430,60.0,
77,77,45,9,4,148,2,,,,,,,,,,,session,1917.816037200042,138.0,2.0,72.0,0.019781313695318017,5,0.8553414999041706,1.0720821999711916,7,1.7688580999383703,1.8689289999892935,1,0.4541557999327779,0.7210569999879226,,,48.0,66.0,38430,60.0,
-77,77,-45,9,5,149,4,,,,,,,,,,,session,1927.5371407000348,174.0,2.0,72.0,0.019781313695318017,3,1.1367781000444666,1.387079400010407,1,0.324718999909237,0.5574828999815509,0,0.3487033999990672,0.5831741999136284,,,69.0,57.0,38430,60.0,
77,77,90,9,6,150,3,,,,,,,,,,,session,1936.494246599963,150.0,2.0,72.0,0.019781313695318017,5,0.8162997999461368,0.9495968000264838,1,0.4843841000692919,0.670224400004372,0,0.6018681999994442,0.8183583000209183,,,54.0,72.0,38430,60.0,
77,-77,-45,9,7,151,8,,,,,,,,,,,session,1945.3843877000036,132.0,2.0,72.0,0.019781313695318017,5,0.8366053000790998,1.0700904000550508,1,0.34096380008850247,0.5744292000308633,0,0.8339000000851229,1.0848140000598505,,,54.0,60.0,38430,60.0,
-77,77,45,9,8,152,6,,,,,,,,,,,session,1953.6563951000571,138.0,2.0,72.0,0.019781313695318017,4,1.4547200999222696,1.6724577998975292,1,0.011469799908809364,0.22479689994361252,0,0.27918399998452514,0.5573835000395775,,,60.0,69.0,38430,60.0,
-77,-77,0,9,9,153,13,,,,,,,,,,,session,1962.016340399976,126.0,2.0,72.0,0.019781313695318017,3,1.0308071000035852,1.2975295999785885,1,0.3835913999937475,0.5836330000311136,0,0.5168905999744311,0.7843536000000313,,,69.0,63.0,38430,60.0,
77,-77,45,9,10,154,10,,,,,,,,,,,session,1970.7701475999784,156.0,2.0,72.0,0.4,4,0.4017204000847414,0.6520277000963688,7,1.0031352000078186,1.2015008000889793,0,0.7835195999359712,3.553828199976124,,,60.0,54.0,38430,60.0,
77,77,-45,9,11,155,0,,,,,,,,,,,session,1982.11071909999,150.0,2.0,72.0,0.019781313695318017,3,1.2139209000160918,1.4304516999982297,1,0.26956600008998066,0.4519958000164479,0,0.011116599896922708,0.013027899898588657,,,57.0,72.0,38430,60.0,
77,-77,0,9,12,156,9,,,,,,,,,,,session,1990.70000349998,126.0,2.0,72.0,0.4,4,0.23718840000219643,0.4205538999522105,0,0.35414830001536757,0.5865673000225797,7,0.010876899934373796,0.012773399939760566,,,69.0,66.0,38430,60.0,
-77,77,90,9,13,157,7,,,,,,,,,,,session,1997.5209092999576,174.0,2.0,72.0,0.019781313695318017,5,0.9013099999865517,1.0185578999808058,6,0.4499035000335425,0.6816130999941379,1,0.9947404999984428,1.1976595999440178,,,54.0,69.0,38430,60.0,
77,-77,90,9,14,158,11,,,,,,,,,,,session,2006.8250775999622,162.0,2.0,72.0,0.019781313695318017,4,1.0059270000783727,1.2057313000550494,6,0.24965519993565977,0.43186569993849844,6,0.33519909996539354,0.5352954999543726,,,51.0,60.0,38430,60.0,
-77,-77,-45,9,15,159,12,,,,,,,,,,,session,2015.2032245000592,156.0,2.0,72.0,0.4,3,0.03289880009833723,0.21791520004626364,1,0.7874134999001399,1.0039562999736518,7,0.011235499987378716,0.013103900011628866,,,72.0,60.0,38430,60.0,
-77,-77,-45,9,15,159,12,,,materials/instructions\12_break.png,2022.705319800065,2029.1788146999897,0,6.239627100061625,6.471626000013202,0.021239900030195713,6.484274800051935,,,,,,,,,,,,,,,,,,,,38430,60.0,
-77,77,90,10,0,160,7,,,,,,,,,,,session,2029.1999770000111,150.0,2.0,72.0,0.019781313695318017,2,0.9423066000454128,1.1258587000193074,1,0.011657900060527027,0.013558800099417567,0,2.1517678999807686,0.010985400062054396,,,54.0,57.0,38430,60.0,
77,77,0,10,1,161,1,,,,,,,,,,,session,2038.4730479000136,168.0,2.0,72.0,0.019781313695318017,5,1.0873412999790162,1.2876695999875665,1,0.3058706000447273,0.47255230008158833,0,0.2521367999725044,0.4517996000358835,,,48.0,72.0,38430,60.0,
-77,-77,90,10,2,162,15,,,,,,,,,,,session,2046.9277071000542,156.0,2.0,72.0,0.019781313695318017,3,1.0291551999980584,1.2486731999088079,1,0.28577219997532666,0.48729580000508577,0,0.27047970006242394,0.45374470006208867,,,60.0,60.0,38430,60.0,
77,77,90,10,3,163,3,,,,,,,,,,,session,2055.6687354999594,162.0,2.0,72.0,0.019781313695318017,2,0.9512220000615343,1.117991799954325,1,0.16513809992466122,0.38408470002468675,0,0.35123290005140007,0.5846863000188023,,,69.0,48.0,38430,60.0,
77,-77,-45,10,4,164,8,,,,,,,,,,,session,2063.8739785000216,150.0,2.0,72.0,0.019781313695318017,5,1.202484899898991,1.3199915000004694,1,0.9255394000792876,1.025639500003308,0,0.44783079996705055,0.6310696000000462,,,63.0,72.0,38430,60.0,
-77,-77,0,10,5,165,13,,,,,,,,,,,session,2073.039120899979,162.0,2.0,72.0,0.4,3,0.011075299931690097,0.012814100016839802,0,0.3352001999737695,0.5351696000434458,7,0.028116100002080202,0.4790555000072345,,,69.0,66.0,38430,60.0,
-77,77,0,10,6,166,5,,,,,,,,,,,session,2080.720027900068,180.0,2.0,72.0,0.4,2,0.011090900050476193,0.012996100005693734,0,0.27165630005765706,0.4382188000017777,7,0.27176540007349104,0.6044651999836788,,,54.0,66.0,38430,60.0,
77,-77,45,10,7,167,10,,,,,,,,,,,session,2088.2248488999903,180.0,2.0,72.0,0.019781313695318017,4,0.7179908000398427,0.9912168000591919,7,1.2745021999580786,1.5623496000189334,1,0.5682217000285164,0.7355145000619814,,,51.0,60.0,38430,60.0,
-77,77,-45,10,8,168,4,,,,,,,,,,,session,2097.8393607999897,162.0,2.0,72.0,0.019781313695318017,2,1.0700223000021651,1.3032087999163195,1,0.8872896999819204,1.1041350000305101,1,0.2982059000059962,0.5155145000899211,,,60.0,63.0,38430,60.0,
77,-77,0,10,9,169,9,,,,,,,,,,,session,2106.974045800045,126.0,2.0,72.0,0.019781313695318017,5,0.9504081000341102,1.1503589000785723,1,1.2391648000339046,1.4896117000607774,1,0.3014879999682307,0.48508250003214926,,,48.0,66.0,38430,60.0,
77,77,-45,10,10,170,0,,,,,,,,,,,session,2115.549385900027,138.0,2.0,72.0,0.4,5,0.01109569997061044,0.1128544999519363,1,1.1518136999802664,1.35180709999986,6,0.23449910001363605,0.4849751000292599,,,60.0,51.0,38430,60.0,
-77,-77,45,10,11,171,14,,,,,,,,,,,session,2123.674609699985,138.0,2.0,72.0,0.019781313695318017,3,0.8781040000030771,1.111609200015664,1,0.3022170999320224,0.45529429998714477,0,0.38780710007995367,0.5527821000432596,,,63.0,69.0,38430,60.0,
-77,77,45,10,12,172,6,,,,,,,,,,,session,2131.756351100048,180.0,2.0,72.0,0.019781313695318017,5,0.7037923999596387,0.8539620999945328,1,0.3463126999558881,0.5183520999271423,0,0.2756057999795303,0.5758159999968484,,,72.0,57.0,38430,60.0,
-77,-77,-45,10,13,173,12,,,,,,,,,,,session,2140.3191402000375,174.0,2.0,72.0,0.019781313695318017,3,0.5521817000117153,0.7854166000615805,1,0.3553901999257505,0.5389018999412656,0,0.33423439995385706,0.5168411999475211,,,57.0,57.0,38430,60.0,
77,77,45,10,14,174,2,,,,,,,,,,,session,2148.420711499988,180.0,2.0,72.0,0.019781313695318017,5,0.8903432000661269,1.023717000032775,7,0.8920109999598935,1.12540939997416,1,0.4013613999122754,0.6014603999210522,,,72.0,48.0,38430,60.0,
77,-77,90,10,15,175,11,,,,,,,,,,,session,2157.612194800051,144.0,2.0,72.0,0.019781313695318017,4,0.3978144000284374,0.5978461001068354,6,0.35561450000386685,0.505904300021939,1,0.23096549999900162,0.4331964000593871,,,48.0,69.0,38430,60.0,
-77,77,-45,11,0,176,4,,,,,,,,,,,session,2165.4072415999835,132.0,2.0,72.0,0.019781313695318017,4,0.7796164000174031,1.0631422000005841,0,0.35640990000683814,0.5231272999662906,0,0.3669992000795901,0.5651323000201955,,,60.0,66.0,38430,60.0,
77,-77,0,11,1,177,9,,,,,,,,,,,session,2173.3079931000248,174.0,2.0,72.0,0.019781313695318017,2,0.8509220000123605,1.0023430000292137,1,0.3075640000170097,0.5098404999589548,0,0.35560250002890825,0.5545526000205427,,,48.0,63.0,38430,60.0,
-77,-77,-45,11,2,178,12,,,,,,,,,,,session,2181.5636747999815,174.0,2.0,72.0,0.019781313695318017,3,0.34168870002031326,0.011228500050492585,1,0.7209860000293702,0.9211753000272438,1,0.30067820008844137,0.5193640000652522,,,57.0,57.0,38430,60.0,
-77,77,90,11,3,179,7,,,,,,,,,,,session,2190.1600449000252,138.0,2.0,72.0,0.019781313695318017,4,1.137596799992025,1.4375370000489056,1,0.3356364000355825,0.5524458000436425,0,1.3559927999740466,1.5211030999198556,,,66.0,63.0,38430,60.0,
-77,77,90,11,3,179,7,,,materials/instructions\12_break.png,2199.6206760000205,2212.1853072000667,0,12.313155500101857,12.562652200111188,0.024183599976822734,12.570362699916586,,,,,,,,,,,,,,,,,,,,38430,60.0,
77,77,90,11,4,180,3,,,,,,,,,,,session,2212.201543800067,180.0,2.0,72.0,0.4,5,0.011275400058366358,0.14825480000581592,6,0.722328900010325,0.8903365000151098,7,0.577877499978058,0.7943372000008821,,,57.0,63.0,38430,60.0,
77,77,45,11,5,181,2,,,,,,,,,,,session,2220.4956333000446,144.0,2.0,72.0,0.4,5,0.011976200039498508,0.1210603000363335,7,0.7223139000125229,0.956783700035885,6,0.5105506000109017,0.6152826000470668,,,48.0,48.0,38430,60.0,
77,-77,45,11,6,182,10,,,,,,,,,,,session,2227.6235990000423,138.0,2.0,72.0,0.019781313695318017,4,0.281330099911429,0.5323094999184832,7,0.3712341000791639,0.7047795000253245,1,1.5366783000063151,1.7867647999664769,,,54.0,66.0,38430,60.0,
77,77,-45,11,7,183,0,,,,,,,,,,,session,2236.6585039000493,150.0,2.0,72.0,0.019781313695318017,5,0.9879618999548256,1.1213984999340028,1,0.5745434000855312,0.7580246001016349,1,0.6151405000127852,0.815142699982971,,,72.0,51.0,38430,60.0,
-77,-77,45,11,8,184,14,,,,,,,,,,,session,2245.3298433000455,174.0,2.0,72.0,0.019781313695318017,3,1.1027083999942988,1.2998247999930754,1,0.33534369990229607,0.5217402999987826,0,0.2846136000007391,0.4678651000140235,,,54.0,57.0,38430,60.0,
77,77,0,11,9,185,1,,,,,,,,,,,session,2254.2704831999727,168.0,2.0,72.0,0.019781313695318017,5,0.9201405999483541,1.0036674999864772,0,0.32347229996230453,0.5234511999879032,0,0.3013161999406293,0.5035379999317229,,,63.0,72.0,38430,60.0,
77,-77,90,11,10,186,11,,,,,,,,,,,session,2262.794638099964,138.0,2.0,72.0,0.019781313695318017,2,0.9198281000135466,1.0531534000765532,1,0.011727200006134808,0.013577000005170703,0,0.2015156999696046,0.40219960000831634,,,60.0,51.0,38430,60.0,
-77,-77,0,11,11,187,13,,,,,,,,,,,session,2269.864331300021,132.0,2.0,72.0,0.019781313695318017,3,0.8648049000184983,1.0788467000238597,0,1.0693719999399036,1.2332766000181437,0,1.5374737000092864,1.7543197999475524,,,66.0,63.0,38430,60.0,
77,-77,-45,11,12,188,8,,,,,,,,,,,session,2280.4390181000344,162.0,2.0,72.0,0.019781313695318017,2,1.0367125000339001,1.1848493999568745,1,0.7561217999318615,0.9729228999931365,0,0.5717696000356227,0.7882951999781653,,,57.0,57.0,38430,60.0,
-77,77,45,11,13,189,6,,,,,,,,,,,session,2289.430106700049,168.0,2.0,72.0,0.019781313695318017,2,0.8528616999974474,0.9412412999663502,1,0.3378016999922693,0.487821799935773,1,0.0801770999096334,0.33070409996435046,,,63.0,69.0,38430,60.0,
-77,77,0,11,14,190,5,,,,,,,,,,,session,2297.871598900063,144.0,2.0,72.0,0.019781313695318017,5,1.0209035000298172,1.1542339000152424,1,0.3874238000717014,0.6055502000963315,0,0.5385958000551909,0.7054324001073837,,,54.0,69.0,38430,60.0,
-77,-77,90,11,15,191,15,,,,,,,,,,,session,2306.224272500025,144.0,2.0,72.0,0.4,3,0.30462459998670965,0.5725962000433356,6,0.9071784000843763,1.0221244000131264,7,0.2847665000008419,0.48390710004605353,,,72.0,63.0,38430,60.0,
-77,-77,45,12,0,192,14,,,,,,,,,,,session,2314.3982690999983,138.0,2.0,72.0,0.019781313695318017,3,0.693610499962233,0.912784600048326,7,0.728340300032869,0.962125499965623,0,0.32488450000528246,0.5093395999865606,,,57.0,60.0,38430,60.0,
-77,-77,90,12,1,193,15,,,,,,,,,,,session,2323.1053299000487,126.0,2.0,72.0,0.019781313695318017,4,1.2173085000831634,1.517549499985762,1,0.3082063999027014,0.4583331999601796,0,0.011028800043277442,0.01292420004028827,,,57.0,66.0,38430,60.0,
-77,77,90,12,2,194,7,,,,,,,,,,,session,2330.68866590003,180.0,2.0,72.0,0.019781313695318017,2,1.4227381000528112,1.55946869996842,1,0.3356185999000445,0.4858005999121815,0,0.01138759998138994,0.20065430004615337,,,54.0,69.0,38430,60.0,
-77,77,0,12,3,195,5,,,,,,,,,,,session,2339.442316700006,156.0,2.0,72.0,0.019781313695318017,3,1.009045800077729,1.2590035001048818,1,0.5189154000254348,0.703321099979803,0,0.3341995000373572,0.5178410999942571,,,57.0,69.0,38430,60.0,
77,77,0,12,4,196,1,,,,,,,,,,,session,2348.0729198000627,150.0,2.0,72.0,0.019781313695318017,3,1.6204873999813572,1.8039680999936536,1,0.30503179994411767,0.538476699963212,0,0.3374358000000939,0.5378663999726996,,,69.0,51.0,38430,60.0,
77,77,90,12,5,197,3,,,,,,,,,,,session,2356.8976708999835,168.0,2.0,72.0,0.019781313695318017,5,1.1173615999286994,1.2200627999845892,0,0.2873389000305906,0.46996340004261583,0,0.22946900001261383,0.447101500001736,,,63.0,57.0,38430,60.0,
77,77,45,12,6,198,2,,,,,,,,,,,session,2365.9061853999738,180.0,2.0,72.0,0.019781313695318017,5,0.735321499989368,0.8184372000396252,7,0.5228947999421507,0.7415492999134585,1,0.6347581000300124,0.8506529000587761,,,69.0,66.0,38430,60.0,
-77,77,-45,12,7,199,4,,,,,,,,,,,session,2375.010430400027,156.0,2.0,72.0,0.019781313695318017,2,1.13489440002013,1.3187926000682637,1,0.3660014000488445,0.5441593000432476,0,2.201521800016053,2.3529863000148907,,,57.0,72.0,38430,60.0,
-77,77,-45,12,7,199,4,,,materials/instructions\12_break.png,2385.468972300063,2391.7208718999755,0,6.017558700055815,6.249818800017238,0.021389000001363456,6.257561600068584,,,,,,,,,,,,,,,,,,,,38430,60.0,
77,-77,0,12,8,200,9,,,,,,,,,,,session,2391.7364230999956,162.0,2.0,72.0,0.4,4,0.03334750002250075,0.21809290000237525,0,0.5461480999365449,0.7778411000035703,7,0.23219819995574653,0.4316687999526039,,,51.0,72.0,38430,60.0,
-77,-77,0,12,9,201,13,,,,,,,,,,,session,2399.3607844000217,180.0,2.0,72.0,0.019781313695318017,3,0.8456784000154585,1.0594040000578389,1,0.3154310999670997,0.5363610000349581,0,0.11648430000059307,0.3180592000717297,,,57.0,60.0,38430,60.0,
-77,-77,-45,12,10,202,12,,,,,,,,,,,session,2407.8745738000143,150.0,2.0,72.0,0.019781313695318017,5,0.9328494999790564,1.1163904999848455,1,0.4749218999641016,0.706624099984765,0,0.40085860004182905,0.6010047000600025,,,51.0,63.0,38430,60.0,
77,-77,-45,12,11,203,8,,,,,,,,,,,session,2416.1584710000316,174.0,2.0,72.0,0.019781313695318017,2,0.752054400043562,0.9349408000707626,1,0.3413359000114724,0.5249668000033125,0,0.3378487000009045,0.5880416000727564,,,48.0,60.0,38430,60.0,
77,77,-45,12,12,204,0,,,,,,,,,,,session,2424.349169300054,156.0,2.0,72.0,0.4,5,0.010698999976739287,0.012584500014781952,1,1.0711234000045806,1.2711284999968484,7,0.2993770999601111,0.5159433999797329,,,63.0,66.0,38430,60.0,
77,-77,90,12,13,205,11,,,,,,,,,,,session,2433.0931148000527,150.0,2.0,72.0,0.019781313695318017,5,0.9880020000273362,1.1540900999680161,1,0.3414121000096202,0.5416452999925241,0,0.4703445000341162,0.7204119000816718,,,57.0,57.0,38430,60.0,
77,-77,45,12,14,206,10,,,,,,,,,,,session,2441.3605234000133,150.0,2.0,72.0,0.4,4,0.010942100081592798,0.012818100047297776,7,0.9920057998970151,1.1428680999670178,7,0.2926498999586329,0.46443050005473197,,,48.0,51.0,38430,60.0,
-77,77,45,12,15,207,6,,,,,,,,,,,session,2448.5755579000106,180.0,2.0,72.0,0.019781313695318017,2,1.012096400023438,1.161912800045684,1,0.3072297000326216,0.5074097000760958,0,0.4199588999617845,0.6367978999624029,,,69.0,48.0,38430,60.0,
-77,-77,90,13,0,208,15,,,,,,,,,,,session,2457.494076400064,180.0,2.0,72.0,0.019781313695318017,3,0.5539372999919578,0.7876314000459388,1,0.38848500000312924,0.5886117001064122,0,0.35638919996563345,0.5908634000224993,,,51.0,72.0,38430,60.0,
-77,77,45,13,1,209,6,,,,,,,,,,,session,2465.981763900025,174.0,2.0,72.0,0.019781313695318017,5,0.9471721000736579,1.0762049000477418,1,0.9167422999162227,1.1315922999056056,0,0.7860056000063196,0.953650200041011,,,54.0,57.0,38430,60.0,
77,-77,0,13,2,210,9,,,,,,,,,,,session,2475.673725300003,144.0,2.0,72.0,0.019781313695318017,2,0.6989107000408694,0.8827093000290915,1,0.3380550999427214,0.5062424999196082,0,0.32882109994534403,0.5123180999653414,,,57.0,69.0,38430,60.0,
77,-77,90,13,3,211,11,,,,,,,,,,,session,2483.5109213000396,174.0,2.0,72.0,0.019781313695318017,5,1.0369263000320643,1.2519024000503123,1,0.47321810002904385,0.6402365999529138,0,0.34933310002088547,0.5630274000577629,,,54.0,54.0,38430,60.0,
-77,-77,0,13,4,212,13,,,,,,,,,,,session,2492.120782300015,168.0,2.0,72.0,0.019781313695318017,2,0.8856994999805465,1.0521944999927655,1,0.4359686999814585,0.6198398999404162,0,1.5498358000768349,1.6999683000613004,,,69.0,66.0,38430,60.0,
77,77,90,13,5,213,3,,,,,,,,,,,session,2502.441195799969,126.0,2.0,72.0,0.019781313695318017,5,0.8478086000541225,0.9652227000333369,6,0.6012181000551209,0.8042822000570595,1,0.37281610001809895,0.5063148000044748,,,72.0,72.0,38430,60.0,
-77,-77,45,13,6,214,14,,,,,,,,,,,session,2510.6821054000175,150.0,2.0,72.0,0.019781313695318017,4,0.7306241999613121,1.0139616000233218,1,0.3845835999818519,0.5666751000098884,0,0.2555547000374645,0.455728100030683,,,51.0,63.0,38430,60.0,
-77,77,0,13,7,215,5,,,,,,,,,,,session,2518.925692799967,180.0,2.0,72.0,0.019781313695318017,3,1.1864782000193372,1.4041706999996677,1,0.3867090999847278,0.5700718000298366,0,0.2728779000462964,0.48754090000875294,,,54.0,54.0,38430,60.0,
77,-77,-45,13,8,216,8,,,,,,,,,,,session,2527.6435162000125,156.0,2.0,72.0,0.019781313695318017,5,0.9024597000097856,1.069978900020942,1,0.3752064999425784,0.5577647999161854,0,0.2927629000041634,0.4666148000396788,,,57.0,63.0,38430,60.0,
77,77,0,13,9,217,1,,,,,,,,,,,session,2535.7902453000424,132.0,2.0,72.0,0.4,5,0.01104540005326271,0.012952700024470687,0,0.31548909994307905,0.4840828999876976,7,0.3371016000164673,0.5379697999451309,,,72.0,54.0,38430,60.0,
77,-77,45,13,10,218,10,,,,,,,,,,,session,2543.0439343999606,180.0,2.0,72.0,0.019781313695318017,4,1.139832800021395,1.3233050999697298,1,0.35227809997741133,0.5190038000000641,0,0.31845809996593744,0.5185184000292793,,,51.0,66.0,38430,60.0,
-77,77,90,13,11,219,7,,,,,,,,,,,session,2551.811934600002,126.0,2.0,72.0,0.019781313695318017,2,1.2704532999778166,1.3705191999906674,1,0.30332910001743585,0.45565570006147027,0,0.2950956999557093,0.442050899961032,,,54.0,57.0,38430,60.0,
-77,77,90,13,11,219,7,,,materials/instructions\12_break.png,2559.5229540000437,2569.05686240003,0,9.300017300061882,9.531871400075033,0.01901479996740818,9.539839399978518,,,,,,,,,,,,,,,,,,,,38430,60.0,
-77,77,-45,13,12,220,4,,,,,,,,,,,session,2569.072958500008,144.0,2.0,72.0,0.019781313695318017,5,1.0281859999522567,1.1618098999606445,6,0.5726983000058681,0.7728047999553382,0,0.38761010009329766,0.5710864000720903,,,60.0,54.0,38430,60.0,
77,77,45,13,13,221,2,,,,,,,,,,,session,2577.3324005999602,138.0,2.0,72.0,0.019781313695318017,3,0.4081833000527695,0.6938044000416994,1,0.28016110009048134,0.4972196000162512,0,0.267758599948138,0.5346646000398323,,,60.0,72.0,38430,60.0,
77,77,-45,13,14,222,0,,,,,,,,,,,session,2585.4244557999773,126.0,2.0,72.0,0.019781313695318017,5,1.0487862000009045,1.215696399915032,1,0.3546372000128031,0.6047432000050321,0,0.39995380002073944,0.6488183999899775,,,69.0,57.0,38430,60.0,
-77,-77,-45,13,15,223,12,,,,,,,,,,,session,2593.56157660007,144.0,2.0,72.0,0.4,3,0.0112960000988096,0.013177999993786216,1,0.5360872999299318,0.7861165999202058,7,0.36921240005176514,0.6215353000443429,,,54.0,48.0,38430,60.0,
-77,-77,0,14,0,224,13,,,,,,,,,,,session,2600.517871899996,174.0,2.0,72.0,0.4,3,0.011185500072315335,0.013238899991847575,0,0.011451600003056228,0.3370816999813542,7,0.41947930003516376,0.6702654000837356,,,60.0,54.0,38430,60.0,
-77,-77,-45,14,1,225,12,,,,,,,,,,,session,2608.4432370000286,156.0,2.0,72.0,0.019781313695318017,5,1.8858063000952825,2.052435200079344,1,0.4552915000822395,0.6857538000913337,0,0.41785530000925064,0.6530922000529245,,,54.0,63.0,38430,60.0,
77,-77,0,14,2,226,9,,,,,,,,,,,session,2617.847702500061,150.0,2.0,72.0,0.019781313695318017,3,0.8696467000991106,0.9697881999891251,1,0.5813003999646753,0.7812717000488192,0,0.877948599983938,1.0954504000255838,,,72.0,69.0,38430,60.0,
-77,77,90,14,3,227,7,,,,,,,,,,,session,2627.0070804000134,174.0,2.0,72.0,0.4,2,0.011452700011432171,0.013424400007352233,6,0.252983900019899,0.4530159999849275,6,0.3233679999830201,0.5569880999391899,,,51.0,57.0,38430,60.0,
77,77,0,14,4,228,1,,,,,,,,,,,session,2634.178144000005,180.0,2.0,72.0,0.019781313695318017,5,0.8859966000309214,1.1188797000795603,1,0.33581750001758337,0.5867546999361366,0,0.2845870000310242,0.502086800057441,,,60.0,66.0,38430,60.0,
-77,77,45,14,5,229,6,,,,,,,,,,,session,2642.9333101999946,180.0,2.0,72.0,0.019781313695318017,2,0.579645499936305,0.7583839000435546,7,0.6663829000899568,0.9139680000953376,1,0.33400500006973743,0.5007539000362158,,,66.0,60.0,38430,60.0,
77,77,-45,14,6,230,0,,,,,,,,,,,session,2652.008037099964,138.0,2.0,72.0,0.4,5,0.06583840004168451,0.16806350008118898,1,0.45408210007008165,0.6542957000201568,6,0.3701184999663383,0.5532819000072777,,,69.0,57.0,38430,60.0,
-77,-77,90,14,7,231,15,,,,,,,,,,,session,2659.2302648000186,174.0,2.0,72.0,0.019781313695318017,5,1.1527758999727666,1.2705516000278294,1,0.44008780003059655,0.6559782000258565,1,0.22054680006112903,0.40353190002497286,,,57.0,57.0,38430,60.0,
77,-77,90,14,8,232,11,,,,,,,,,,,session,2667.80154330004,180.0,2.0,72.0,0.019781313695318017,4,1.082897900021635,1.2165268999524415,1,0.3468308000592515,0.6135664000175893,0,0.316980000003241,0.500451400061138,,,57.0,51.0,38430,60.0,
-77,-77,45,14,9,233,14,,,,,,,,,,,session,2677.040811700048,174.0,2.0,72.0,0.019781313695318017,5,1.3024533999850973,1.3848498000297695,1,0.4391469999682158,0.5537736000260338,0,0.32135620003100485,0.5225995000218973,,,57.0,51.0,38430,60.0,
77,-77,45,14,10,234,10,,,,,,,,,,,session,2685.6492745999712,126.0,2.0,72.0,0.019781313695318017,2,1.6997159000020474,1.8329430000158027,1,0.13584100001025945,0.35239519993774593,0,0.27222589997109026,0.4862471999367699,,,57.0,72.0,38430,60.0,
-77,77,-45,14,11,235,4,,,,,,,,,,,session,2694.011870400049,138.0,2.0,72.0,0.019781313695318017,2,1.368700599996373,1.5516012000152841,1,0.3731654000002891,0.5898921999614686,0,0.353738300036639,0.5547007001005113,,,51.0,54.0,38430,60.0,
77,-77,-45,14,12,236,8,,,,,,,,,,,session,2702.213101600064,144.0,2.0,72.0,0.019781313695318017,2,1.254274999955669,1.371052399976179,0,0.2890451999846846,0.47084470000118017,0,0.23988869995810091,0.40668959997128695,,,57.0,48.0,38430,60.0,
77,77,45,14,13,237,2,,,,,,,,,,,session,2710.0503506000387,150.0,2.0,72.0,0.4,5,0.011664499994367361,0.011636900017037988,7,0.4028644999489188,0.5858712999615818,7,0.5692865999881178,0.7529846999095753,,,69.0,69.0,38430,60.0,
77,77,90,14,14,238,3,,,,,,,,,,,session,2718.1924902000464,150.0,2.0,72.0,0.019781313695318017,5,0.916480700019747,0.9997901000315323,6,0.38809799996670336,0.5722260000184178,1,0.33564819989260286,0.5359642999246716,,,66.0,57.0,38430,60.0,
-77,77,0,14,15,239,5,,,,,,,,,,,session,2726.2946001000237,162.0,2.0,72.0,0.019781313695318017,2,1.0895551000721753,1.1910652000224218,0,0.28565370000433177,0.4866636000806466,0,0.27317230007611215,0.43642370007000864,,,54.0,63.0,38430,60.0,
-77,77,0,14,15,239,5,,,materials/instructions\12_break.png,2734.518495199969,2741.9737513000146,0,7.303128300001845,7.4532027000095695,0.01788150006905198,7.461119499988854,,,,,,,,,,,,,,,,,,,,38430,60.0,
-77,-77,-45,15,0,240,12,,,,,,,,,,,session,2741.9897308000363,132.0,2.0,72.0,0.019781313695318017,2,1.0249955999897793,1.1917556999251246,0,0.35393730003852397,0.5536212000297382,0,0.2511930000036955,0.5015874999808148,,,54.0,72.0,38430,60.0,
77,77,0,15,1,241,1,,,,,,,,,,,session,2750.0128976000706,126.0,2.0,72.0,0.019781313695318017,5,1.0219989999895915,1.1899140999885276,0,0.3080572000471875,0.5077658999944106,1,0.29620290000457317,0.011416600085794926,,,57.0,54.0,38430,60.0,
-77,-77,0,15,2,242,13,,,,,,,,,,,session,2757.415255,132.0,2.0,72.0,0.4,3,0.030476099927909672,0.03226959996391088,0,0.3046590000158176,0.5187475000275299,6,0.3363867000443861,0.5363464000402018,,,66.0,54.0,38430,60.0,
-77,77,45,15,3,243,6,,,,,,,,,,,session,2764.532271999982,156.0,2.0,72.0,0.4,2,0.012093400000594556,0.013991100015118718,7,0.48956799996085465,0.7221622000215575,7,0.3364993999712169,0.5366356999147683,,,48.0,72.0,38430,60.0,
77,-77,45,15,4,244,10,,,,,,,,,,,session,2771.863133799983,144.0,2.0,72.0,0.019781313695318017,4,0.35377060004975647,0.6533588001038879,7,0.6451809999998659,0.8961326000280678,1,0.29399750009179115,0.4941529000643641,,,66.0,72.0,38430,60.0,
77,77,90,15,5,245,3,,,,,,,,,,,session,2780.057242800016,168.0,2.0,72.0,0.4,5,0.011107599944807589,0.01296550000552088,6,0.3329082001000643,0.5521157000912353,7,0.3527630000608042,0.6181632000952959,,,69.0,54.0,38430,60.0,
77,77,-45,15,6,246,0,,,,,,,,,,,session,2787.8471481000306,132.0,2.0,72.0,0.019781313695318017,5,3.202624599914998,3.369388599996455,1,0.41761449992191046,0.5669394999276847,1,0.5046444999752566,0.6699312999844551,,,48.0,63.0,38430,60.0,
-77,77,90,15,7,247,7,,,,,,,,,,,session,2797.9474827999948,156.0,2.0,72.0,0.019781313695318017,2,0.870208999956958,0.975927000050433,6,0.3855861999327317,0.5556734999408945,1,1.1130685999523848,1.3130396000342444,,,57.0,69.0,38430,60.0,
-77,-77,45,15,8,248,14,,,,,,,,,,,session,2807.325929200044,150.0,2.0,72.0,0.019781313695318017,5,0.5666532999603078,0.7332826000638306,0,0.36830500001087785,0.5184598999330774,0,0.010971999960020185,0.012838499969802797,,,72.0,63.0,38430,60.0,
-77,77,0,15,9,249,5,,,,,,,,,,,session,2814.786533100065,174.0,2.0,72.0,0.4,2,0.05330980010330677,0.05533670005388558,0,0.359397100051865,0.5781845999881625,7,0.4489712999202311,0.6322943998966366,,,66.0,66.0,38430,60.0,
77,-77,90,15,10,250,11,,,,,,,,,,,session,2822.585967399995,144.0,2.0,72.0,0.019781313695318017,4,0.3423369999509305,0.5592710999771953,6,1.7269991000648588,1.790216700057499,1,0.487530899932608,0.6877758000046015,,,72.0,48.0,38430,60.0,
-77,-77,90,15,11,251,15,,,,,,,,,,,session,2832.129126499989,168.0,2.0,72.0,0.019781313695318017,5,0.9168581999838352,1.1003596000373363,0,0.439081099932082,0.6059218998998404,0,0.3375707999803126,0.5357793000293896,,,69.0,57.0,38430,60.0,
-77,77,-45,15,12,252,4,,,,,,,,,,,session,2840.7158792000264,150.0,2.0,72.0,0.019781313695318017,2,0.6419005000498146,0.8314518000697717,1,0.3186572000849992,0.46899419999681413,1,0.3814733000472188,0.5981539000058547,,,60.0,48.0,38430,60.0,
77,-77,-45,15,13,253,8,,,,,,,,,,,session,2848.363403900061,144.0,2.0,72.0,0.019781313695318017,4,0.9548326000804082,1.1872264000121504,1,0.3385194999864325,0.5351788999978453,0,0.28661330009344965,0.45248050009831786,,,72.0,66.0,38430,60.0,
77,77,45,15,14,254,2,,,,,,,,,,,session,2856.6944713999983,126.0,2.0,72.0,0.019781313695318017,4,0.7551967999897897,1.0364092000527307,1,0.4232438000617549,0.6246560000581667,0,0.5232931000646204,0.7568217000225559,,,48.0,57.0,38430,60.0,
77,-77,0,15,15,255,9,,,,,,,,,,,session,2864.420795000042,132.0,2.0,72.0,0.019781313695318017,2,0.46280879992991686,0.6798389999894425,1,1.397920300019905,1.598347100079991,0,0.3321565999649465,0.5489076999947429,,,51.0,69.0,38430,60.0,
77,77,0,16,0,256,1,,,,,,,,,,,session,2873.2259526000125,138.0,2.0,72.0,0.019781313695318017,5,0.8394413000205532,1.0896066999994218,1,0.2902612999314442,0.54042649990879,0,0.2655350000131875,0.4671566999750212,,,60.0,54.0,38430,60.0,
77,-77,0,16,1,257,9,,,,,,,,,,,session,2880.966001200024,150.0,2.0,72.0,0.019781313695318017,4,0.7510511999716982,0.9020132999867201,0,1.0222511000465602,1.2222965999972075,0,1.216693100053817,1.4166735000908375,,,51.0,63.0,38430,60.0,
77,77,-45,16,2,258,0,,,,,,,,,,,session,2890.3631515000015,126.0,2.0,72.0,0.019781313695318017,5,0.9140951000154018,1.0138909999513999,1,0.30450790002942085,0.5039210000541061,0,0.351300899987109,0.5851700999774039,,,60.0,60.0,38430,60.0,
-77,-77,0,16,3,259,13,,,,,,,,,,,session,2898.279619100038,150.0,2.0,72.0,0.019781313695318017,2,0.9200388999888673,1.070188100100495,0,0.30120430001989007,0.501127399969846,0,0.42575479997321963,0.643015000037849,,,72.0,66.0,38430,60.0,
-77,-77,0,16,3,259,13,,,materials/instructions\12_break.png,2906.762411599979,2911.2167194000212,0,4.218643800006248,4.45215729996562,0.021682800026610494,4.459751199930906,,,,,,,,,,,,,,,,,,,,38430,60.0,
-77,77,-45,16,4,260,4,,,,,,,,,,,session,2911.2317568999715,174.0,2.0,72.0,0.019781313695318017,2,0.8581105000339448,1.0739578999346122,0,0.37146619998384267,0.5715459000784904,0,0.21434569999109954,0.3825664999894798,,,54.0,57.0,38430,60.0,
-77,77,90,16,5,261,7,,,,,,,,,,,session,2920.060571899987,150.0,2.0,72.0,0.019781313695318017,2,1.0167265000054613,1.2003615000285208,0,1.2572540000546724,1.4573536000680178,0,0.38721660000737756,0.5873862999724224,,,48.0,51.0,38430,60.0,
-77,-77,90,16,6,262,15,,,,,,,,,,,session,2928.8831082000397,156.0,2.0,72.0,0.019781313695318017,2,0.6954312999732792,0.9070769000099972,0,0.3607183999847621,0.5609283000230789,0,0.3507808999856934,0.5980517000425607,,,63.0,69.0,38430,60.0,
77,77,90,16,7,263,3,,,,,,,,,,,session,2937.2272772999713,150.0,2.0,72.0,0.019781313695318017,5,0.7695167000638321,0.9697690999601036,1,0.5584350000135601,0.7919877000385895,1,0.352168699959293,0.5691687000216916,,,60.0,63.0,38430,60.0,
77,-77,90,16,8,264,11,,,,,,,,,,,session,2945.5800747000612,138.0,2.0,72.0,0.019781313695318017,4,0.6387264999793842,0.8567236999515444,6,0.37059920001775026,0.6035774000920355,1,0.3028581999242306,0.5370978999417275,,,66.0,72.0,38430,60.0,
-77,77,0,16,9,265,5,,,,,,,,,,,session,2953.6190733000403,150.0,2.0,72.0,0.019781313695318017,5,0.9925473000621423,1.159738100017421,0,0.42066190007608384,0.6868529000785202,0,0.33562639995943755,0.569230500026606,,,51.0,57.0,38430,60.0,
77,-77,-45,16,10,266,8,,,,,,,,,,,session,2962.397793799988,174.0,2.0,72.0,0.019781313695318017,5,0.9049424999393523,1.155056199990213,1,0.4556505000218749,0.6725213999161497,0,0.8233376999851316,1.0054693999700248,,,48.0,69.0,38430,60.0,
-77,-77,-45,16,11,267,12,,,,,,,,,,,session,2971.533913900028,168.0,2.0,72.0,0.019781313695318017,2,0.8008384000277147,1.017751200008206,0,0.21958290005568415,0.4805001999484375,0,0.3649213999742642,0.5357191000366583,,,72.0,66.0,38430,60.0,
77,77,45,16,12,268,2,,,,,,,,,,,session,2980.13118580007,150.0,2.0,72.0,0.4,5,0.13483699993230402,0.2683726999675855,7,0.41421690001152456,0.6292762999655679,7,0.32202500000130385,0.5410427999449894,,,69.0,48.0,38430,60.0,
77,-77,45,16,13,269,10,,,,,,,,,,,session,2987.4640971999615,156.0,2.0,72.0,0.019781313695318017,4,0.9841372000519186,1.200978400069289,7,0.4242372999433428,0.6404080999782309,1,0.8838343999814242,0.9838678000960499,,,60.0,54.0,38430,60.0,
-77,-77,45,16,14,270,14,,,,,,,,,,,session,2996.235283200047,126.0,2.0,72.0,0.019781313695318017,3,0.3329844999825582,0.5642858000937849,7,0.5520068999612704,0.6902970999944955,0,0.6684430999448523,0.8686962999636307,,,72.0,63.0,38430,60.0,
-77,77,45,16,15,271,6,,,,,,,,,,,session,3004.328454700066,138.0,2.0,72.0,0.019781313695318017,3,0.8833790000062436,1.0834518999326974,0,0.2710434999316931,0.4711703999200836,0,0.16130660008639097,0.4607033000793308,,,66.0,66.0,38430,60.0,
77,-77,0,17,0,272,9,,,,,,,,,,,session,3012.2966352000367,150.0,2.0,72.0,0.019781313695318017,5,1.3593193999258801,1.5427899999776855,1,0.3692155000753701,0.5859689000062644,0,0.3682564999908209,0.600446299999021,,,60.0,60.0,38430,60.0,
-77,-77,0,17,1,273,13,,,,,,,,,,,session,3020.967853600043,126.0,2.0,72.0,0.019781313695318017,2,1.0160299999406561,1.1660941999871284,0,0.3909569999668747,0.5552810999797657,0,0.32834969996474683,0.5287515999516472,,,51.0,63.0,38430,60.0,
77,-77,45,17,2,274,10,,,,,,,,,,,session,3029.3323649000376,150.0,2.0,72.0,0.019781313695318017,2,1.2713438000064343,1.4047002999577671,0,0.38884139992296696,0.6056019999086857,0,0.31871540006250143,0.5354870000155643,,,69.0,51.0,38430,60.0,
-77,-77,-45,17,3,275,12,,,,,,,,,,,session,3037.834267899976,156.0,2.0,72.0,0.019781313695318017,2,1.236741300090216,1.3865286000072956,0,0.8241863999282941,1.0025500999763608,0,0.28178409999236465,0.46449149993713945,,,54.0,72.0,38430,60.0,
-77,77,90,17,4,276,7,,,,,,,,,,,session,3046.8609283000696,144.0,2.0,72.0,0.019781313695318017,5,1.15516690001823,1.27214640006423,0,0.3038270000834018,0.4862598000327125,0,0.3036874000681564,0.48724030004814267,,,72.0,60.0,38430,60.0,
77,-77,-45,17,5,277,8,,,,,,,,,,,session,3055.162695300067,150.0,2.0,72.0,0.019781313695318017,2,1.1873903999803588,1.3043309999629855,0,0.2720528000500053,0.45565550005994737,0,0.01102460001129657,0.1506674000993371,,,63.0,63.0,38430,60.0,
-77,77,-45,17,6,278,4,,,,,,,,,,,session,3063.120221600053,156.0,2.0,72.0,0.019781313695318017,2,1.2692812000168487,1.4191310999449342,0,0.3003876000875607,0.5001724000321701,0,0.5335867999820039,0.7168623999459669,,,72.0,57.0,38430,60.0,
77,77,-45,17,7,279,0,,,,,,,,,,,session,3072.244294299977,180.0,2.0,72.0,0.019781313695318017,2,1.1207100000465289,1.253472000011243,0,0.4559161000652239,0.6071321000345051,0,2.586161099956371,2.7365013998933136,,,54.0,57.0,38430,60.0,
77,77,-45,17,7,279,0,,,materials/instructions\12_break.png,3083.1630544000072,3100.111582500045,0,16.76308229996357,16.946446499903686,0.0221412000246346,16.954196200007573,,,,,,,,,,,,,,,,,,,,38430,60.0,
77,-77,90,17,8,280,11,,,,,,,,,,,session,3100.1272675000364,156.0,2.0,72.0,0.019781313695318017,4,0.37976409995462745,0.54808109998703,6,0.2557724000653252,0.4896794999949634,0,0.13807740004267544,0.371575600001961,,,63.0,60.0,38430,60.0,
-77,-77,45,17,9,281,14,,,,,,,,,,,session,3107.6200467000017,156.0,2.0,72.0,0.4,3,0.011026700027287006,0.012942399946041405,7,0.6978705000365153,0.8647044999524951,6,0.30197160004172474,0.501443300046958,,,57.0,69.0,38430,60.0,
-77,77,45,17,10,282,6,,,,,,,,,,,session,3115.6619228000054,138.0,2.0,72.0,0.019781313695318017,2,0.6162561000091955,0.7831827000482008,0,0.2045153999933973,0.4547554000746459,0,0.3189524000044912,0.6035619999747723,,,72.0,57.0,38430,60.0,
-77,-77,90,17,11,283,15,,,,,,,,,,,session,3123.4169729000423,144.0,2.0,72.0,0.019781313695318017,4,0.48701580008491874,0.7216365999775007,0,0.23729319998528808,0.4372816999675706,0,0.05719600000884384,0.42494920000899583,,,57.0,69.0,38430,60.0,
-77,77,0,17,12,284,5,,,,,,,,,,,session,3130.936714300071,162.0,2.0,72.0,0.4,2,0.011171499965712428,0.013105399906635284,0,0.3702575999777764,0.6176061000442132,7,0.3197972000343725,0.5199764999561012,,,57.0,54.0,38430,60.0,
77,77,45,17,13,285,2,,,,,,,,,,,session,3138.761660899967,138.0,2.0,72.0,0.019781313695318017,3,0.7178925999905914,0.9679822999751195,0,0.33986249996814877,0.5420726999873295,0,0.33464210003148764,0.552675100043416,,,69.0,57.0,38430,60.0,
77,77,0,17,14,286,1,,,,,,,,,,,session,3146.6676955999574,144.0,2.0,72.0,0.019781313695318017,5,0.8194198000710458,1.0029117000522092,0,0.07062670006416738,0.3040843000635505,1,0.3066222999477759,0.5454978999914601,,,60.0,69.0,38430,60.0,
77,77,90,17,15,287,3,,,,,,,,,,,session,3154.515003700042,162.0,2.0,72.0,0.019781313695318017,5,0.43335200008004904,0.6499469999689609,6,0.42186230001971126,0.6226894999854267,1,1.1695861999178305,1.5175380000146106,,,51.0,63.0,38430,60.0,
77,-77,0,18,0,288,9,,,,,,,,,,,session,3163.6964617000194,126.0,2.0,72.0,0.019781313695318017,4,0.8819272000109777,1.1305590000702068,0,0.33736560004763305,0.5705405999906361,0,0.37124540004879236,0.6705100000835955,,,63.0,48.0,38430,60.0,
-77,-77,45,18,1,289,14,,,,,,,,,,,session,3171.4679046999663,126.0,2.0,72.0,0.019781313695318017,3,1.1747201000107452,1.4100016000447795,0,0.3486652000574395,0.6039264999562874,0,0.3266223999671638,0.5270216000499204,,,66.0,54.0,38430,60.0,
-77,77,0,18,2,290,5,,,,,,,,,,,session,3179.528707999969,144.0,2.0,72.0,0.019781313695318017,3,0.9573909000027925,1.1241562999784946,0,0.011426600045524538,0.15463560004718602,0,0.035710399970412254,0.27043259993661195,,,57.0,63.0,38430,60.0,
-77,-77,-45,18,3,291,12,,,,,,,,,,,session,3186.9465192999924,168.0,2.0,72.0,0.4,3,0.01097119995392859,0.012913099955767393,1,0.6526186999399215,0.8209793999558315,6,0.2676437000045553,0.40102910005953163,,,48.0,66.0,38430,60.0,
-77,77,45,18,4,292,6,,,,,,,,,,,session,3194.3352704000426,174.0,2.0,72.0,0.4,2,0.011561300023458898,0.013458300032652915,7,0.6619171999627724,0.8432094999589026,7,0.3681631999788806,0.521467600017786,,,54.0,60.0,38430,60.0,
-77,77,-45,18,5,293,4,,,,,,,,,,,session,3202.0831416000146,144.0,2.0,72.0,0.4,2,0.011155199958011508,0.013013900024816394,1,0.6524846000829712,0.835977700073272,6,0.3190060000633821,0.46995759999845177,,,60.0,69.0,38430,60.0,
-77,-77,0,18,6,294,13,,,,,,,,,,,session,3209.396982999984,150.0,2.0,72.0,0.019781313695318017,4,0.8934254000196233,1.0098606999963522,0,0.3053921000100672,0.4575162000255659,0,0.05076590005774051,0.23620420007500798,,,48.0,57.0,38430,60.0,
77,77,45,18,7,295,2,,,,,,,,,,,session,3216.785574699985,156.0,2.0,72.0,0.4,5,0.11344549991190434,0.19729049992747605,7,1.0823245999636129,1.2157990999985486,6,1.3349157000193372,1.5218111000722274,,,54.0,48.0,38430,60.0,
77,77,90,18,8,296,3,,,,,,,,,,,session,3225.483883799985,126.0,2.0,72.0,0.019781313695318017,5,1.0173694000113755,1.11724900000263,6,0.5706625999882817,0.7375128999119624,1,0.31985179998446256,0.5201043999986723,,,60.0,57.0,38430,60.0,
-77,-77,90,18,9,297,15,,,,,,,,,,,session,3233.3653579000384,156.0,2.0,72.0,0.019781313695318017,2,1.5386441999580711,1.6712856000522152,0,0.37021189997904,0.5535463999258354,0,0.4090351000195369,0.5925569999963045,,,51.0,66.0,38430,60.0,
77,-77,-45,18,10,298,8,,,,,,,,,,,session,3242.1731527000666,162.0,2.0,72.0,0.019781313695318017,4,0.28280089993495494,0.5128032999346033,1,2.4370077999774367,2.537013699999079,0,0.6018021999625489,0.7186426999978721,,,66.0,69.0,38430,60.0,
77,77,-45,18,11,299,0,,,,,,,,,,,session,3253.0478116000304,138.0,2.0,72.0,0.019781313695318017,5,0.603871600003913,0.7214829999720678,1,0.6243007000302896,0.8077547000721097,1,0.30461019999347627,0.5217300000367686,,,60.0,63.0,38430,60.0,
77,77,-45,18,11,299,0,,,materials/instructions\12_break.png,3260.9176493000705,3268.6945347000146,0,7.574720300035551,7.774897100054659,0.02008129993919283,7.782726199948229,,,,,,,,,,,,,,,,,,,,38430,60.0,
77,-77,90,18,12,300,11,,,,,,,,,,,session,3268.710743200034,162.0,2.0,72.0,0.019781313695318017,2,1.4669709000736475,1.6015129000879824,0,0.33781429997179657,0.5046782999997959,0,0.2865052999695763,0.4868110999232158,,,63.0,60.0,38430,60.0,
77,-77,45,18,13,301,10,,,,,,,,,,,session,3277.499068300007,150.0,2.0,72.0,0.019781313695318017,2,1.1059162999736145,1.2884234000230208,0,0.33885159995406866,0.5222145000007004,0,0.2889877000125125,0.455777500057593,,,54.0,57.0,38430,60.0,
-77,77,90,18,14,302,7,,,,,,,,,,,session,3285.556214499986,156.0,2.0,72.0,0.019781313695318017,2,0.4462368000531569,0.7619754000334069,0,0.4719385999487713,0.6720068999566138,0,0.3165750000625849,0.5318384000565857,,,60.0,54.0,38430,60.0,
77,77,0,18,15,303,1,,,,,,,,,,,session,3294.264827899984,168.0,2.0,72.0,0.019781313695318017,5,0.6866647999268025,0.9530782999936491,0,0.3904255999950692,0.657227799994871,1,0.9015311000403017,1.170976100023836,,,51.0,57.0,38430,60.0,
-77,-77,90,19,0,304,15,,,,,,,,,,,session,3303.08900659997,126.0,2.0,72.0,0.4,3,0.05214270006399602,0.28783809999004006,6,0.011585800093598664,0.23722920008003712,1,0.2150930999778211,0.4763944000005722,,,69.0,66.0,38430,60.0,
77,-77,0,19,1,305,9,,,,,,,,,,,session,3309.877789600054,180.0,2.0,72.0,0.019781313695318017,2,1.2675665999995545,1.3362133000046015,1,0.3321072000544518,0.4463056999957189,0,0.303079399978742,0.011082699988037348,,,57.0,60.0,38430,60.0,
-77,-77,-45,19,2,306,12,,,,,,,,,,,session,3318.7210737999994,132.0,2.0,72.0,0.019781313695318017,3,1.3559702000347897,1.538533200044185,0,0.012545699952170253,0.014510600012727082,0,1.075520999962464,1.244259599945508,,,72.0,60.0,38430,60.0,
-77,77,45,19,3,307,6,,,,,,,,,,,session,3327.3743509000633,132.0,2.0,72.0,0.019781313695318017,2,0.9304735000478104,1.085888299974613,0,0.3329190999502316,0.5039721999783069,0,0.3333519999869168,0.012978399987332523,,,57.0,48.0,38430,60.0,
77,77,45,19,4,308,2,,,,,,,,,,,session,3334.752301300061,132.0,2.0,72.0,0.019781313695318017,2,0.9034175999695435,1.070175900007598,0,0.08332570001948625,0.28509630006738007,0,0.251077999942936,0.4660946000367403,,,63.0,48.0,38430,60.0,
77,77,0,19,5,309,1,,,,,,,,,,,session,3342.079743099981,162.0,2.0,72.0,0.019781313695318017,2,0.8865484999259934,1.1868756000185385,0,0.011557199992239475,0.013456600019708276,0,3.221557299955748,3.405084199970588,,,72.0,72.0,38430,60.0,
-77,77,90,19,6,310,7,,,,,,,,,,,session,3353.240290499991,168.0,2.0,72.0,0.019781313695318017,2,1.0331605999963358,1.2155879000201821,0,0.011449500103481114,0.013345200102776289,0,0.011237700004130602,0.18646529992111027,,,60.0,54.0,38430,60.0,
77,-77,45,19,7,311,10,,,,,,,,,,,session,3361.4473374000518,132.0,2.0,72.0,0.019781313695318017,5,1.4058228000067174,1.4891791000263765,0,0.5387020000489429,0.7231956999748945,0,0.20316959999036044,0.38632540008984506,,,69.0,66.0,38430,60.0,
-77,77,-45,19,8,312,4,,,,,,,,,,,session,3369.9368117999984,144.0,2.0,72.0,0.019781313695318017,2,0.8190474999137223,0.9690737999044359,0,0.35223649989347905,0.6135675999103114,0,0.31859330006409436,0.5357124999864027,,,57.0,51.0,38430,60.0,
-77,-77,0,19,9,313,13,,,,,,,,,,,session,3377.7180650000228,144.0,2.0,72.0,0.4,3,0.011052199988625944,0.012951500015333295,0,0.3674640000099316,0.6163860999513417,6,0.36909089994151145,0.5507505999412388,,,60.0,54.0,38430,60.0,
77,77,-45,19,10,314,0,,,,,,,,,,,session,3384.6650686999783,162.0,2.0,72.0,0.4,5,0.1549252999247983,0.25489229999948293,1,1.0046690000453964,1.087974000023678,7,0.8691375000635162,1.0527173000155017,,,63.0,72.0,38430,60.0,
77,77,90,19,11,315,3,,,,,,,,,,,session,3393.456533599994,168.0,2.0,72.0,0.4,5,0.01135210006032139,0.01326340006198734,6,0.29792949999682605,0.49848690000362694,7,0.46323909994680434,0.6838932000100613,,,48.0,48.0,38430,60.0,
77,-77,-45,19,12,316,8,,,,,,,,,,,session,3400.6518680000445,138.0,2.0,72.0,0.019781313695318017,2,0.8510349000571296,1.0033534000394866,0,0.5875543000875041,0.7373918000375852,0,0.2706418000161648,0.43736650003120303,,,48.0,48.0,38430,60.0,
77,-77,90,19,13,317,11,,,,,,,,,,,session,3408.18190830003,162.0,2.0,72.0,0.019781313695318017,5,0.766488500055857,0.8994990000501275,0,0.32346380001399666,0.5560645000077784,0,0.20382270007394254,0.46850410010665655,,,60.0,69.0,38430,60.0,
-77,-77,45,19,14,318,14,,,,,,,,,,,session,3416.4217115000356,150.0,2.0,72.0,0.019781313695318017,2,1.0380995000014082,1.150427599903196,0,0.2510743000311777,0.42119030002504587,0,0.2693124000215903,0.5190291999606416,,,66.0,66.0,38430,60.0,
-77,77,0,19,15,319,5,,,,,,,,,,,session,3424.9657922000624,144.0,2.0,72.0,0.019781313695318017,2,1.1177790000801906,1.2514595000538975,0,0.3860125000355765,0.6365143000148237,0,0.33813599997665733,0.5042512000072747,,,57.0,54.0,38430,60.0,
-77,77,0,19,15,319,5,,,materials/instructions\12_break.png,3433.0792209999636,3440.404256500071,0,7.139644899987616,7.3229369999608025,0.02286110003478825,7.330577100045048,,,,,,,,,,,,,,,,,,,,38430,60.0,
-77,77,45,20,0,320,6,,,,,,,,,,,session,3440.4199239000445,126.0,2.0,72.0,0.4,2,0.011853400035761297,0.014257900067605078,7,0.9872168999863788,1.1553544999333099,6,0.30212939996272326,0.4512717999750748,,,54.0,48.0,38430,60.0,
-77,-77,90,20,1,321,15,,,,,,,,,,,session,3447.864252200001,156.0,2.0,72.0,0.019781313695318017,2,1.3355096000013873,1.4362663000356406,0,0.27017220004927367,0.45441810006741434,0,0.3194750000257045,0.502977899974212,,,60.0,48.0,38430,60.0,
-77,-77,-45,20,2,322,12,,,,,,,,,,,session,3456.1028016000055,138.0,2.0,72.0,0.019781313695318017,3,0.6853807999286801,0.9017523999791592,0,0.4554228000342846,0.6384377999929711,0,0.30551470001228154,0.46294840006157756,,,48.0,54.0,38430,60.0,
77,-77,-45,20,3,323,8,,,,,,,,,,,session,3463.5492899999954,162.0,2.0,72.0,0.019781313695318017,3,0.46455859998241067,0.6812694000545889,0,0.30331630003638566,0.455556400003843,0,0.21066710003651679,0.3586396999889985,,,63.0,60.0,38430,60.0,
77,-77,0,20,4,324,9,,,,,,,,,,,session,3471.8164796000347,168.0,2.0,72.0,0.019781313695318017,4,0.47062349994666874,0.6380043999524787,1,0.35182380001060665,0.486670000012964,0,0.35051190003287047,0.5506838000146672,,,69.0,72.0,38430,60.0,
-77,77,-45,20,5,325,4,,,,,,,,,,,session,3480.086709000054,174.0,2.0,72.0,0.019781313695318017,2,0.9884548999834806,1.171198399970308,0,0.011356099974364042,0.13409690000116825,0,0.4027528000297025,0.6031368999974802,,,60.0,48.0,38430,60.0,
77,77,90,20,6,326,3,,,,,,,,,,,session,3488.151656900067,144.0,2.0,72.0,0.019781313695318017,2,0.6910160999977961,0.9228242000099272,0,0.012609599973075092,0.23927689995616674,0,0.35454359999857843,0.6048688000300899,,,66.0,60.0,38430,60.0,
-77,77,90,20,7,327,7,,,,,,,,,,,session,3495.884001599974,132.0,2.0,72.0,0.019781313695318017,2,0.5955408000154421,0.812305900035426,0,0.37290529999881983,0.623895899974741,0,0.3533817999996245,0.6024529000278562,,,57.0,51.0,38430,60.0,
-77,-77,45,20,8,328,14,,,,,,,,,,,session,3503.372238300042,174.0,2.0,72.0,0.019781313695318017,2,0.4258978000143543,0.6864299000008032,0,0.3389175001066178,0.5393304000608623,0,0.7205888000316918,0.954483300098218,,,57.0,63.0,38430,60.0,
-77,77,0,20,9,329,5,,,,,,,,,,,session,3511.9028820999665,138.0,2.0,72.0,0.019781313695318017,2,0.9693791000172496,1.1174130000872537,0,0.30748449999373406,0.5067189999390393,0,0.25235099997371435,0.43582040001638234,,,54.0,60.0,38430,60.0,
77,77,45,20,10,330,2,,,,,,,,,,,session,3519.6169959000545,138.0,2.0,72.0,0.019781313695318017,2,1.3689781000139192,1.4688833999680355,0,0.27495730004739016,0.4743739999830723,0,0.09971830004360527,0.3509942999808118,,,66.0,60.0,38430,60.0,
77,-77,90,20,11,331,11,,,,,,,,,,,session,3527.7573381999973,174.0,2.0,72.0,0.019781313695318017,2,1.3106147999642417,1.480198199977167,0,0.35494019999168813,0.5548035999527201,0,0.2974325999384746,0.5307789999060333,,,57.0,69.0,38430,60.0,
77,77,0,20,12,332,1,,,,,,,,,,,session,3537.3152130000526,156.0,2.0,72.0,0.4,5,0.010948200011625886,0.012973799952305853,0,0.29007719992659986,0.4883951999945566,7,0.3188320000190288,0.5189909000182524,,,63.0,57.0,38430,60.0,
-77,-77,0,20,13,333,13,,,,,,,,,,,session,3544.3868858000496,168.0,2.0,72.0,0.4,3,0.011652700020931661,0.08604379999451339,0,0.23510349995922297,0.45232070004567504,7,0.3025037000188604,0.5038519999943674,,,63.0,54.0,38430,60.0,
77,-77,45,20,14,334,10,,,,,,,,,,,session,3551.6247860000003,138.0,2.0,72.0,0.019781313695318017,4,0.7473178999498487,0.8834677999839187,7,0.5886088999686763,0.7885537999682128,1,0.29260240006260574,0.46269780001603067,,,54.0,63.0,38430,60.0,
77,77,-45,20,15,335,0,,,,,,,,,,,session,3560.021305600065,138.0,2.0,72.0,0.019781313695318017,2,1.3200836000032723,1.4370369999669492,0,0.3899728999240324,0.6078937998972833,0,2.303841800079681,2.4042421000776812,,,63.0,51.0,38430,60.0,
-77,77,0,21,0,336,5,,,,,,,,,,,session,3570.1409822000423,144.0,2.0,72.0,0.4,2,0.011205899994820356,0.11855229991488159,0,0.31580370001029223,0.5112431000452489,6,0.5818996999878436,0.7325574000133201,,,72.0,72.0,38430,60.0,
-77,77,-45,21,1,337,4,,,,,,,,,,,session,3577.7814082000405,174.0,2.0,72.0,0.019781313695318017,2,1.128678199951537,1.2320244000293314,1,1.0072961000259966,1.1262473000679165,1,0.30227879993617535,0.48482939996756613,,,48.0,60.0,38430,60.0,
77,77,90,21,2,338,3,,,,,,,,,,,session,3586.7682239999995,168.0,2.0,72.0,0.4,5,0.012080500018782914,0.0368276999797672,6,0.5040481999749318,0.7218696000054479,6,0.4054145000409335,0.6236645000753924,,,57.0,48.0,38430,60.0,
-77,-77,45,21,3,339,14,,,,,,,,,,,session,3594.1436470999615,132.0,2.0,72.0,0.019781313695318017,5,1.072087200009264,1.1849733999697492,0,0.01197890006005764,0.08612290001474321,0,0.30138840002473444,0.5013146999990568,,,69.0,57.0,38430,60.0,
-77,-77,45,21,3,339,14,,,materials/instructions\12_break.png,3602.1753009000095,3611.4188188000116,0,9.141520099947229,9.241476099938154,0.02274529996793717,9.248988899984397,,,,,,,,,,,,,,,,,,,,38430,60.0,
77,-77,90,21,4,340,11,,,,,,,,,,,session,3611.4347277999623,138.0,2.0,72.0,0.019781313695318017,2,0.7971718999324366,0.8972331000259146,0,0.28814159997273237,0.4853552000131458,0,0.3092888999963179,0.5259812999283895,,,54.0,66.0,38430,60.0,
77,-77,0,21,5,341,9,,,,,,,,,,,session,3619.114000300062,156.0,2.0,72.0,0.4,3,0.01131810003425926,0.013289100024849176,0,0.3373793000355363,0.5540183000266552,6,0.8675556000089273,1.0006977000739425,,,60.0,48.0,38430,60.0,
