x,y,orientation,.thisRepN,.thisTrialN,.thisN,.thisIndex,.stepSize,.intensity,image_name,global_start_time,global_end_time,pressKey,pressRT,releaseRT,image_started,image_ended,name,globalTime,fixation_dur,stimulation_dur,post_fixation,opacity,locationResponse_pressKey,locationResponse_pressRT,locationResponse_releaseRT,orientationResponse_pressKey,orientationResponse_pressRT,orientationResponse_releaseRT,pasResponse_pressKey,pasResponse_pressRT,pasResponse_releaseRT,.response,finalOpacity,postLoc,postOri,ID,frameRate,
,,,0,-1,-1,0,0.0969100130080564,None,materials/instructions\1_welcome.png,2.9313093998935074,54.40660629980266,0,51.35740480013192,51.47331060003489,0.06352099985815585,51.47189179994166,,,,,,,,,,,,,,,,,,,,52421,60.0,
,,,0,-1,-1,0,0.0969100130080564,None,materials/instructions\2_instruction.png,54.46517949993722,77.54088269989006,0,22.99021720001474,23.073665000032634,0.010936700040474534,23.081643600016832,,,,,,,,,,,,,,,,,,,,52421,60.0,
,,,0,-1,-1,0,0.0969100130080564,None,materials/instructions\3_location_demo.png,77.59737749979831,91.2842731999699,0,13.5846537000034,13.6847945000045,0.012417600024491549,13.691619999939576,,,,,,,,,,,,,,,,,,,,52421,60.0,
,,,0,-1,-1,0,0.0969100130080564,None,materials/instructions\4_orientation_demo.png,91.34396359999664,115.9197021999862,0,24.456559699960053,24.573642499977723,0.02658340008929372,24.58059270004742,,,,,,,,,,,,,,,,,,,,52421,60.0,
,,,0,-1,-1,0,0.0969100130080564,None,materials/instructions\5_pas_demo.png,115.9810373999644,126.1604984998703,0,10.077299600001425,10.177311399951577,0.02508069993928075,10.184474300127476,,,,,,,,,,,,,,,,,,,,52421,60.0,
-77,77,-45,0,-1,-1,0,0.0969100130080564,None,,,,,,,,,session,126.17848889995366,144.0,2.0,72.0,1.0,2,4.598515400197357,4.765992300119251,1,4.378729799995199,4.529065600130707,7,5.1320157998707145,5.248923999955878,,,,,52421,60.0,
77,77,0,0,-1,-1,0,0.0969100130080564,None,,,,,,,,,session,145.09546439978294,174.0,2.0,72.0,1.0,5,2.182582800043747,2.32988699991256,7,3.3458076999522746,3.4968601998407394,6,1.1925478000193834,1.3592439000494778,,,,,52421,60.0,
77,77,45,0,-1,-1,0,0.0969100130080564,None,,,,,,,,,session,156.9382729998324,150.0,2.0,72.0,1.0,5,1.0070470999926329,1.1748532999772578,7,0.8057746000122279,0.972503799945116,7,1.1363044998142868,1.3024307999294251,,,,,52421,60.0,
77,77,90,0,-1,-1,0,0.0969100130080564,None,,,,,,,,,session,164.2751936998684,180.0,2.0,72.0,1.0,5,1.4892550001386553,1.656088000163436,6,2.075654099928215,2.2300733998417854,1,2.844815299846232,2.977185299852863,,,,,52421,60.0,
77,77,-45,0,-1,-1,0,0.0969100130080564,None,,,,,,,,,session,175.55445820000023,126.0,2.0,72.0,1.0,5,1.376870800042525,1.5104966000653803,1,2.350619100034237,2.464507699944079,6,1.32860970008187,1.4787049000151455,,,,,52421,60.0,
,,,0,-1,-1,0,0.0969100130080564,None,materials/instructions\10_staircase_start.png,184.52317599998787,193.61413769982755,0,8.954716499894857,9.088122299872339,0.01842489978298545,9.101211000001058,,,,,,,,,,,,,,,,,,,,52421,60.0,
,,,0,0,-1,0,0.0969100130080564,0.4,,,,,,,,,staircase,193.63366839988157,168.0,2.0,72.0,0.4,,,,1,1.2654443001374602,1.3502704000566155,,,,1,,,,52421,60.0,
,,,0,1,-1,0,0.0969100130080564,0.32,,,,,,,,,staircase,199.4541137998458,138.0,2.0,72.0,0.32,,,,1,0.8637231001630425,1.0657045000698417,,,,1,,,,52421,60.0,
,,,0,2,-1,0,0.0969100130080564,0.256,,,,,,,,,staircase,204.12349639995955,138.0,2.0,72.0,0.256,,,,1,0.6555755999870598,0.7887436000164598,,,,1,,,,52421,60.0,
,,,0,3,-1,0,0.0969100130080564,0.2048,,,,,,,,,staircase,208.5239212999586,144.0,2.0,72.0,0.2048,,,,6,0.30499359988607466,0.5056709998752922,,,,0,,,,52421,60.0,
,,,0,4,-1,0,0.0969100130080564,0.256,,,,,,,,,staircase,212.7453004999552,174.0,2.0,72.0,0.256,,,,1,1.696908500045538,1.8331043999642134,,,,1,,,,52421,60.0,
,,,0,5,-1,0,0.0969100130080564,0.2048,,,,,,,,,staircase,219.28796399990097,168.0,2.0,72.0,0.2048,,,,0,0.681641099974513,0.7983490000478923,,,,1,,,,52421,60.0,
,,,0,6,-1,0,0.0969100130080564,0.16384,,,,,,,,,staircase,224.22024739999324,138.0,2.0,72.0,0.16384,,,,6,0.4341811998747289,0.6018482998479158,,,,1,,,,52421,60.0,
,,,0,7,-1,0,0.0969100130080564,0.13107200000000002,,,,,,,,,staircase,228.4398600999266,138.0,2.0,72.0,0.13107200000000002,,,,6,1.168751300079748,1.3029394000768661,,,,1,,,,52421,60.0,
,,,0,8,-1,0,0.0969100130080564,0.10485760000000002,,,,,,,,,staircase,233.36184099991806,132.0,2.0,72.0,0.10485760000000002,,,,1,0.9960614999290556,1.1461267999839038,,,,1,,,,52421,60.0,
,,,0,9,-1,0,0.0969100130080564,0.08388608000000002,,,,,,,,,staircase,238.17125459993258,132.0,2.0,72.0,0.08388608000000002,,,,1,0.32839429983869195,0.411755999783054,,,,1,,,,52421,60.0,
,,,0,10,-1,0,0.0969100130080564,0.06710886400000002,,,,,,,,,staircase,242.3524607999716,138.0,2.0,72.0,0.06710886400000002,,,,7,0.6711419001221657,0.8379860001150519,,,,1,,,,52421,60.0,
,,,0,11,-1,0,0.0969100130080564,0.053687091200000016,,,,,,,,,staircase,246.80422599986196,126.0,2.0,72.0,0.053687091200000016,,,,0,0.35571289993822575,0.48919609980657697,,,,1,,,,52421,60.0,
,,,0,12,-1,0,0.0969100130080564,0.04294967296000001,,,,,,,,,staircase,250.70599209982902,156.0,2.0,72.0,0.04294967296000001,,,,7,1.0230241001117975,1.1559119001030922,,,,1,,,,52421,60.0,
,,,0,13,-1,0,0.0969100130080564,0.034359738368000006,,,,,,,,,staircase,255.776847000001,180.0,2.0,72.0,0.034359738368000006,,,,1,1.0315260000061244,1.1622536999639124,,,,1,,,,52421,60.0,
,,,0,14,-1,0,0.0969100130080564,0.027487790694400004,,,,,,,,,staircase,261.72224439983256,126.0,2.0,72.0,0.027487790694400004,,,,1,0.8886825998779386,0.9894957998767495,,,,1,,,,52421,60.0,
,,,0,15,-1,0,0.0969100130080564,0.021990232555520003,,,,,,,,,staircase,266.1372762999963,126.0,2.0,72.0,0.021990232555520003,,,,6,0.6000920000951737,0.751050400082022,,,,1,,,,52421,60.0,
,,,0,16,-1,0,0.0969100130080564,0.017592186044416,,,,,,,,,staircase,270.3054707997944,180.0,2.0,72.0,0.017592186044416,,,,0,2.9587230999022722,3.1571682000067085,,,,1,,,,52421,60.0,
,,,0,17,-1,0,0.0969100130080564,0.014073748835532801,,,,,,,,,staircase,277.77804029989056,168.0,2.0,72.0,0.014073748835532801,,,,0,0.9077949000056833,1.0868913000449538,,,,0,,,,52421,60.0,
,,,0,18,-1,0,0.0969100130080564,0.017592186044416,,,,,,,,,staircase,283.3177411998622,138.0,2.0,72.0,0.017592186044416,,,,0,0.48787429998628795,0.671173500129953,,,,0,,,,52421,60.0,
,,,0,19,-1,0,0.0969100130080564,0.021990232555520003,,,,,,,,,staircase,287.603415499907,168.0,2.0,72.0,0.021990232555520003,,,,6,0.8022604000288993,0.9515976998955011,,,,1,,,,52421,60.0,
,,,0,20,-1,0,0.0969100130080564,0.017592186044416,,,,,,,,,staircase,292.6716914998833,162.0,2.0,72.0,0.017592186044416,,,,0,2.2529933000914752,2.453153199981898,,,,0,,,,52421,60.0,
,,,0,21,-1,0,0.0969100130080564,0.021990232555520003,,,,,,,,,staircase,299.14306719996966,174.0,2.0,72.0,0.021990232555520003,,,,6,1.3378719999454916,1.5547897000797093,,,,0,,,,52421,60.0,
,,,0,22,-1,0,0.0969100130080564,0.027487790694400004,,,,,,,,,staircase,305.0553415999748,144.0,2.0,72.0,0.027487790694400004,,,,7,1.1710407000500709,1.3545082001946867,,,,1,,,,52421,60.0,
,,,0,23,-1,0,0.0969100130080564,0.021990232555520003,,,,,,,,,staircase,310.2368212000001,126.0,2.0,72.0,0.021990232555520003,,,,7,0.49358890019357204,0.643687300151214,,,,1,,,,52421,60.0,
,,,0,24,-1,0,0.0969100130080564,0.017592186044416,,,,,,,,,staircase,314.3057826999575,138.0,2.0,72.0,0.017592186044416,,,,0,1.2748382000718266,1.4443475999869406,,,,1,,,,52421,60.0,
,,,0,25,-1,0,0.0969100130080564,0.014073748835532801,,,,,,,,,staircase,319.36221669986844,150.0,2.0,72.0,0.014073748835532801,,,,0,0.6538438000716269,0.8200069000013173,,,,0,,,,52421,60.0,
,,,0,26,-1,0,0.0969100130080564,0.017592186044416,,,,,,,,,staircase,323.9953611998353,162.0,2.0,72.0,0.017592186044416,,,,1,1.032865800196305,1.1804117001593113,,,,1,,,,52421,60.0,
,,,0,27,-1,0,0.0969100130080564,0.014073748835532801,,,,,,,,,staircase,329.836624099873,180.0,2.0,72.0,0.014073748835532801,,,,1,1.0670304000377655,1.183857599971816,,,,0,,,,52421,60.0,
,,,0,28,-1,0,0.0969100130080564,0.017592186044416,,,,,,,,,staircase,335.33797789993696,162.0,2.0,72.0,0.017592186044416,,,,0,1.0869927001185715,1.2706206000875682,,,,1,,,,52421,60.0,
,,,0,29,-1,0,0.0969100130080564,0.014073748835532801,,,,,,,,,staircase,340.62528889998794,168.0,2.0,72.0,0.014073748835532801,,,,0,0.6023907999042422,0.8358541999477893,,,,1,,,,52421,60.0,
,,,0,30,-1,0,0.0969100130080564,0.01125899906842624,,,,,,,,,staircase,345.57874239981174,144.0,2.0,72.0,0.01125899906842624,,,,0,0.011597299948334694,0.013521299930289388,,,,0,,,,52421,60.0,
,,,0,31,-1,0,0.0969100130080564,0.014073748835532801,,,,,,,,,staircase,349.83711069985293,150.0,2.0,72.0,0.014073748835532801,,,,0,0.5870196002069861,0.753969700075686,,,,0,,,,52421,60.0,
,,,0,32,-1,0,0.0969100130080564,0.017592186044416,,,,,,,,,staircase,354.40408379980363,174.0,2.0,72.0,0.017592186044416,,,,0,0.6029931001830846,0.7543176000472158,,,,1,,,,52421,60.0,
,,,0,33,-1,0,0.0969100130080564,0.014073748835532801,,,,,,,,,staircase,359.374639299931,168.0,2.0,72.0,0.014073748835532801,,,,0,0.011574999894946814,0.013474199920892715,,,,0,,,,52421,60.0,
,,,0,34,-1,0,0.0969100130080564,0.017592186044416,,,,,,,,,staircase,363.51982499985024,180.0,2.0,72.0,0.017592186044416,,,,0,0.011983899865299463,0.013954200083389878,,,,0,,,,52421,60.0,
,,,0,35,-1,0,0.0969100130080564,0.021990232555520003,,,,,,,,,staircase,367.8562704999931,132.0,2.0,72.0,0.021990232555520003,,,,0,1.7831234000623226,1.9634470001328737,,,,1,,,,52421,60.0,
,,,0,36,-1,0,0.0969100130080564,0.017592186044416,,,,,,,,,staircase,373.9864863997791,174.0,2.0,72.0,0.017592186044416,,,,7,1.885620699962601,2.067354300059378,,,,1,,,,52421,60.0,
,,,0,37,-1,0,0.0969100130080564,0.014073748835532801,,,,,,,,,staircase,380.27253099996597,162.0,2.0,72.0,0.014073748835532801,,,,0,1.8729038999881595,2.0066301999613643,,,,1,,,,52421,60.0,
,,,0,38,-1,0,0.0969100130080564,0.01125899906842624,,,,,,,,,staircase,386.2937844998669,144.0,2.0,72.0,0.01125899906842624,,,,7,1.6572376999538392,1.8687207999173552,,,,1,,,,52421,60.0,
,,,0,39,-1,0,0.0969100130080564,0.009007199254740993,,,,,,,,,staircase,391.88316449988633,180.0,2.0,72.0,0.009007199254740993,,,,0,0.9262937000021338,1.0929897997993976,,,,0,,,,52421,60.0,
,,,0,40,-1,0,0.0969100130080564,0.01125899906842624,,,,,,,,,staircase,397.8039026998449,180.0,2.0,72.0,0.01125899906842624,,,,0,0.5541550000198185,0.7042373998556286,,,,0,,,,52421,60.0,
,,,0,41,-1,0,0.0969100130080564,0.014073748835532801,,,,,,,,,staircase,402.83898479980417,150.0,2.0,72.0,0.014073748835532801,,,,0,0.5246209998149425,0.7082146999891847,,,,0,,,,52421,60.0,
,,,0,42,-1,0,0.0969100130080564,0.017592186044416,,,,,,,,,staircase,407.3607047998812,180.0,2.0,72.0,0.017592186044416,,,,0,0.46572580002248287,0.6323800999671221,,,,0,,,,52421,60.0,
,,,0,43,-1,0,0.0969100130080564,0.021990232555520003,,,,,,,,,staircase,412.3289973998908,156.0,2.0,72.0,0.021990232555520003,,,,1,1.0301468002144247,1.1773723000660539,,,,1,,,,52421,60.0,
,,,0,44,-1,0,0.0969100130080564,0.017592186044416,,,,,,,,,staircase,418.05376989999786,150.0,2.0,72.0,0.017592186044416,,,,7,1.0524149001576006,1.252589700045064,,,,1,,,,52421,60.0,
,,,0,45,-1,0,0.0969100130080564,0.014073748835532801,,,,,,,,,staircase,423.1230017999187,156.0,2.0,72.0,0.014073748835532801,,,,0,0.7357945998664945,0.9018904999829829,,,,0,,,,52421,60.0,
,,,0,46,-1,0,0.0969100130080564,0.017592186044416,,,,,,,,,staircase,427.9578681997955,132.0,2.0,72.0,0.017592186044416,,,,0,0.7361578000709414,0.8697957000695169,,,,0,,,,52421,60.0,
,,,0,47,-1,0,0.0969100130080564,0.021990232555520003,,,,,,,,,staircase,432.34589749993756,138.0,2.0,72.0,0.021990232555520003,,,,0,0.5750499998684973,0.730375099927187,,,,1,,,,52421,60.0,
,,,0,48,-1,0,0.0969100130080564,0.017592186044416,,,,,,,,,staircase,436.8399054999463,168.0,2.0,72.0,0.017592186044416,,,,0,0.5854937001131475,0.8021889000665396,,,,1,,,,52421,60.0,
,,,0,49,-1,0,0.0969100130080564,0.014073748835532801,,,,,,,,,staircase,442.0875332998112,156.0,2.0,72.0,0.014073748835532801,,,,0,0.583720900118351,0.8848780000116676,,,,1,,,,52421,60.0,
,,,0,50,-1,0,0.0969100130080564,0.01125899906842624,,,,,,,,,staircase,446.90626379987225,150.0,2.0,72.0,0.01125899906842624,,,,0,0.011621899902820587,0.013613099930807948,,,,0,,,,52421,60.0,
,,,0,51,-1,0,0.0969100130080564,0.014073748835532801,,,,,,,,,staircase,450.7336949999444,126.0,2.0,72.0,0.014073748835532801,,,,0,0.5232789001893252,0.6899999000597745,,,,0,,,,52421,60.0,
,,,0,52,-1,0,0.0969100130080564,0.017592186044416,,,,,,,,,staircase,454.8468171998393,180.0,2.0,72.0,0.017592186044416,,,,0,0.6518773001153022,0.8290193001739681,,,,1,,,,52421,60.0,
,,,0,53,-1,0,0.0969100130080564,0.014073748835532801,,,,,,,,,staircase,460.4690742997918,174.0,2.0,72.0,0.014073748835532801,,,,0,0.6703114998526871,0.8374401999171823,,,,1,,,,52421,60.0,
,,,0,54,-1,0,0.0969100130080564,0.01125899906842624,,,,,,,,,staircase,465.52485339995474,162.0,2.0,72.0,0.01125899906842624,,,,0,0.4469210999086499,0.6303357998840511,,,,0,,,,52421,60.0,
,,,0,55,-1,0,0.0969100130080564,0.014073748835532801,,,,,,,,,staircase,470.19042729982175,168.0,2.0,72.0,0.014073748835532801,,,,0,0.5550878997892141,0.6884664997924119,,,,0,,,,52421,60.0,
,,,0,56,-1,0,0.0969100130080564,0.017592186044416,,,,,,,,,staircase,474.9939154998865,168.0,2.0,72.0,0.017592186044416,,,,0,0.4702749000862241,0.6042096999008209,,,,0,,,,52421,60.0,
,,,0,57,-1,0,0.0969100130080564,0.021990232555520003,,,,,,,,,staircase,479.7156698999461,156.0,2.0,72.0,0.021990232555520003,,,,1,1.215305299963802,1.3156585998367518,,,,1,,,,52421,60.0,
,,,0,58,-1,0,0.0969100130080564,0.017592186044416,,,,,,,,,staircase,485.5740603997838,132.0,2.0,72.0,0.017592186044416,,,,1,1.056641599861905,1.1895011998713017,,,,0,,,,52421,60.0,
,,,0,59,-1,0,0.0969100130080564,0.021990232555520003,,,,,,,,,staircase,490.2732009999454,174.0,2.0,72.0,0.021990232555520003,,,,1,1.4778476001229137,1.6101915000472218,,,,0,,,,52421,60.0,
,,,0,60,-1,0,0.0969100130080564,0.027487790694400004,,,,,,,,,staircase,496.09526849980466,150.0,2.0,72.0,0.027487790694400004,,,,6,1.4361493999604136,1.5696243999991566,,,,1,,,,52421,60.0,
,,,0,61,-1,0,0.0969100130080564,0.021990232555520003,,,,,,,,,staircase,501.4977635999676,132.0,2.0,72.0,0.021990232555520003,,,,7,0.656882300041616,0.7934795999899507,,,,1,,,,52421,60.0,
,,,0,62,-1,0,0.0969100130080564,0.017592186044416,,,,,,,,,staircase,506.37433749996126,144.0,2.0,72.0,0.017592186044416,,,,6,1.2455488999839872,1.3955391000490636,,,,0,,,,52421,60.0,
,,,0,63,-1,0,0.0969100130080564,0.021990232555520003,,,,,,,,,staircase,511.48920549987815,144.0,2.0,72.0,0.021990232555520003,,,,1,1.069985100068152,1.2367616000119597,,,,1,,,,52421,60.0,
,,,0,64,-1,0,0.0969100130080564,0.017592186044416,,,,,,,,,staircase,516.4422130999155,126.0,2.0,72.0,0.017592186044416,,,,6,0.47235199995338917,0.640127900056541,,,,1,,,,52421,60.0,
,,,0,65,-1,0,0.0969100130080564,0.014073748835532801,,,,,,,,,staircase,520.4960636999458,162.0,2.0,72.0,0.014073748835532801,,,,7,1.125113199930638,1.2734924999531358,,,,1,,,,52421,60.0,
,,,0,66,-1,0,0.0969100130080564,0.01125899906842624,,,,,,,,,staircase,526.0071657998487,168.0,2.0,72.0,0.01125899906842624,,,,7,1.0520001000259072,1.2209918000735343,,,,0,,,,52421,60.0,
,,,0,67,-1,0,0.0969100130080564,0.014073748835532801,,,,,,,,,staircase,531.4748309999704,138.0,2.0,72.0,0.014073748835532801,,,,1,0.7700716000981629,0.9377415999770164,,,,0,,,,52421,60.0,
,,,0,68,-1,0,0.0969100130080564,0.017592186044416,,,,,,,,,staircase,536.0248587999959,168.0,2.0,72.0,0.017592186044416,,,,0,0.824910799972713,0.9938548000063747,,,,0,,,,52421,60.0,
,,,0,69,-1,0,0.0969100130080564,0.021990232555520003,,,,,,,,,staircase,541.1310019998346,126.0,2.0,72.0,0.021990232555520003,,,,0,0.6617394001223147,0.8452280000783503,,,,1,,,,52421,60.0,
,,,0,-1,-1,0,,,materials/instructions\11_session_start.png,545.4164740999695,557.9401680999435,0,12.37148330011405,12.521598900202662,0.017754800152033567,12.529329200042412,,,,,,,,,,,,,,,,,,,,52421,60.0,
,,,0,-1,-1,0,,,,,,,,,,,,,,,,,,,,,,,,,,,0.017165575532838914,,,52421,60.0,
-77,77,-45,0,0,0,4,,,,,,,,,,,session,557.9596447998192,150.0,2.0,72.0,0.4,2,2.279435300035402,2.3975794001016766,1,1.057071999879554,1.1071039999369532,6,2.2951770999934524,2.4068769000004977,,,51.0,60.0,52421,60.0,
-77,77,0,0,1,1,5,,,,,,,,,,,session,569.6732599998359,162.0,2.0,72.0,0.4,2,0.4794810002204031,0.628585500176996,0,1.0009481001179665,1.135238799965009,6,0.9985688999295235,1.1507109999656677,,,72.0,63.0,52421,60.0,
77,-77,-45,0,2,2,8,,,,,,,,,,,session,579.2438567997888,144.0,2.0,72.0,0.017165575532838914,5,3.2220823999959975,3.391103700036183,6,1.268685800023377,1.4197053001262248,0,1.0724736999254674,1.244908999884501,,,54.0,69.0,52421,60.0,
77,77,45,0,3,3,2,,,,,,,,,,,session,591.1606690997723,150.0,2.0,72.0,0.017165575532838914,5,1.3145315998699516,1.4660860998556018,1,1.0619628999847919,1.1938678999431431,0,0.3523101001046598,0.5024417000822723,,,48.0,48.0,52421,60.0,
77,-77,90,0,4,4,11,,,,,,,,,,,session,600.2929165998939,168.0,2.0,72.0,0.017165575532838914,4,1.7196949000936002,1.9038102000486106,6,0.808475699974224,0.9084085000213236,1,0.6435752999968827,0.7771104001440108,,,51.0,60.0,52421,60.0,
-77,77,45,0,5,5,6,,,,,,,,,,,session,609.9652115998324,138.0,2.0,72.0,0.017165575532838914,2,1.8301742998883128,1.9634294998832047,0,0.011501699918881059,0.013364899903535843,0,0.01182470005005598,0.013869700022041798,,,66.0,54.0,52421,60.0,
-77,-77,0,0,6,6,13,,,,,,,,,,,session,618.1167090998497,132.0,2.0,72.0,0.017165575532838914,2,2.1030984001699835,2.2179221000988036,0,0.3705764999613166,0.5207703001797199,0,0.011099100112915039,0.23292450001463294,,,63.0,72.0,52421,60.0,
-77,-77,-45,0,7,7,12,,,,,,,,,,,session,626.994866799796,180.0,2.0,72.0,0.017165575532838914,2,1.0004173000343144,1.1338172999676317,0,0.30627760011702776,0.4226958001963794,0,0.011301100021228194,0.013281600084155798,,,54.0,57.0,52421,60.0,
77,77,90,0,8,8,3,,,,,,,,,,,session,634.8578659999184,162.0,2.0,72.0,0.017165575532838914,5,0.4626720000524074,0.6128533000592142,6,0.4916349998675287,0.6406304000411183,1,0.8646849999204278,0.9649729998782277,,,57.0,66.0,52421,60.0,
-77,-77,90,0,9,9,15,,,,,,,,,,,session,643.7257535997778,150.0,2.0,72.0,0.017165575532838914,2,1.4704181998968124,1.5695254998281598,0,0.5044512001331896,0.6712919001001865,0,0.011097799986600876,0.01298459991812706,,,54.0,66.0,52421,60.0,
77,77,0,0,10,10,1,,,,,,,,,,,session,651.9236350997817,144.0,2.0,72.0,0.4,5,0.7525965000968426,0.9026950001716614,0,1.4115224000997841,1.5812244000844657,7,2.081298999954015,2.2143331998959184,,,57.0,57.0,52421,60.0,
77,-77,45,0,11,11,10,,,,,,,,,,,session,662.3904938998166,168.0,2.0,72.0,0.4,4,0.38975490001030266,0.5910200998187065,7,1.372369899880141,1.4401984999421984,6,1.4716225999873132,1.621381200151518,,,60.0,66.0,52421,60.0,
-77,-77,45,0,12,12,14,,,,,,,,,,,session,672.4139649998397,132.0,2.0,72.0,0.017165575532838914,2,2.2632599000353366,2.413457800168544,0,0.34448490012437105,0.44999740016646683,0,0.011145199881866574,0.013586599845439196,,,48.0,57.0,52421,60.0,
77,77,-45,0,13,13,0,,,,,,,,,,,session,680.6716425998602,132.0,2.0,72.0,0.017165575532838914,2,1.0903328000567853,1.2227850002236664,0,0.37584770005196333,0.4759443001821637,0,0.011038800003007054,0.01290419977158308,,,57.0,66.0,52421,60.0,
-77,77,90,0,14,14,7,,,,,,,,,,,session,688.1873924999963,156.0,2.0,72.0,0.017165575532838914,2,1.1553443998564035,1.305540299974382,0,0.8771359999664128,0.9946961998939514,0,0.011198800057172775,0.013101799879223108,,,51.0,60.0,52421,60.0,
77,-77,0,0,15,15,9,,,,,,,,,,,session,696.393017699942,150.0,2.0,72.0,0.4,4,0.504202599870041,0.6694195000454783,0,1.0683892001397908,1.2490072001237422,6,2.4503301999066025,2.6002503999043256,,,54.0,66.0,52421,60.0,
77,77,45,1,0,16,2,,,,,,,,,,,session,706.8753774999641,132.0,2.0,72.0,0.017165575532838914,5,2.8559592000674456,3.0060137999244034,0,1.489118100143969,1.6392505001276731,0,0.5184019999578595,0.6683707998599857,,,57.0,66.0,52421,60.0,
-77,77,90,1,1,17,7,,,,,,,,,,,session,717.8998865999747,138.0,2.0,72.0,0.017165575532838914,2,1.132684800075367,1.2667954000644386,6,2.3179998002015054,2.45175650017336,0,2.9384993999265134,3.0390147001016885,,,54.0,66.0,52421,60.0,
77,-77,-45,1,2,18,8,,,,,,,,,,,session,730.4108078998979,144.0,2.0,72.0,0.017165575532838914,2,1.4921138999052346,1.6273351998534054,0,1.123858799925074,1.2738930999767035,0,1.1864089001901448,1.2681476001162082,,,48.0,60.0,52421,60.0,
77,77,-45,1,3,19,0,,,,,,,,,,,session,740.2289315999951,138.0,2.0,72.0,0.017165575532838914,2,2.4791978001594543,2.5910616000182927,0,0.40124190016649663,0.5141493999399245,0,0.011083400109782815,0.012983800144866109,,,54.0,54.0,52421,60.0,
77,77,-45,1,3,19,0,,,materials/instructions\12_break.png,748.9559939999599,750.8568819998764,0,1.765625499887392,1.8988976997788996,0.0209735999815166,1.906438099918887,,,,,,,,,,,,,,,,,,,,52421,60.0,
77,-77,0,1,4,20,9,,,,,,,,,,,session,750.8730615999084,162.0,2.0,72.0,0.017165575532838914,2,1.6990512998308986,1.8157998998649418,0,0.8371540999505669,0.9867164001334459,0,0.3392238998785615,0.43933019996620715,,,51.0,69.0,52421,60.0,
77,77,90,1,5,21,3,,,,,,,,,,,session,760.2631833998021,180.0,2.0,72.0,0.4,5,0.5636008000001311,0.6978517000097781,6,1.029942899942398,1.1410924000665545,7,2.3333763999398798,2.4471213999204338,,,63.0,63.0,52421,60.0,
77,77,0,1,6,22,1,,,,,,,,,,,session,771.1091316998936,174.0,2.0,72.0,0.017165575532838914,2,2.0300546002108604,2.1302834001835436,0,0.42077530012466013,0.5357859001960605,0,0.011060199933126569,0.013086300110444427,,,69.0,72.0,52421,60.0,
-77,-77,-45,1,7,23,12,,,,,,,,,,,session,780.49061229988,162.0,2.0,72.0,0.017165575532838914,2,2.2563591999933124,2.4066000001039356,0,0.3851914000697434,0.4353527999483049,0,0.011210399912670255,0.013139900052919984,,,72.0,57.0,52421,60.0,
-77,77,45,1,8,24,6,,,,,,,,,,,session,789.6431365997996,150.0,2.0,72.0,0.017165575532838914,5,1.0606664998922497,1.1933616998139769,1,1.2356654000468552,1.3372098000254482,0,0.733805000083521,0.8850660000462085,,,66.0,51.0,52421,60.0,
-77,77,-45,1,9,25,4,,,,,,,,,,,session,799.4464415998664,174.0,2.0,72.0,0.017165575532838914,2,1.4713093000464141,1.6221537999808788,0,0.35747280018404126,0.48881400004029274,0,0.011940500000491738,0.013786899857223034,,,48.0,66.0,52421,60.0,
-77,-77,0,1,10,26,13,,,,,,,,,,,session,807.8081049998291,144.0,2.0,72.0,0.017165575532838914,2,1.1298863999545574,1.2350325000006706,0,0.28660340001806617,0.47402999992482364,0,0.01100239995867014,0.012874000007286668,,,72.0,57.0,52421,60.0,
-77,-77,90,1,11,27,15,,,,,,,,,,,session,815.5879941999447,168.0,2.0,72.0,0.017165575532838914,2,1.332539599854499,1.516012999927625,0,0.45311639993451536,0.603172600036487,0,0.011118799913674593,0.013265299843624234,,,48.0,63.0,52421,60.0,
77,-77,90,1,12,28,11,,,,,,,,,,,session,823.8241427999455,138.0,2.0,72.0,0.4,4,1.4054827999789268,1.5729221000801772,6,1.0718047998379916,1.2219163000117987,6,0.24766320013441145,0.3634155001491308,,,57.0,63.0,52421,60.0,
-77,-77,45,1,13,29,14,,,,,,,,,,,session,832.7352362999227,162.0,2.0,72.0,0.017165575532838914,3,1.0618402999825776,1.2608302999287844,7,1.4602353000082076,1.5942779001779854,1,0.3049779001157731,0.4228078001178801,,,48.0,69.0,52421,60.0,
-77,77,0,1,14,30,5,,,,,,,,,,,session,842.6782170999795,162.0,2.0,72.0,0.017165575532838914,2,1.9559906998183578,2.1060907999053597,0,2.9600537000223994,3.1278787998016924,0,0.3026272999122739,0.4358500000089407,,,60.0,57.0,52421,60.0,
77,-77,45,1,15,31,10,,,,,,,,,,,session,854.4349234998226,174.0,2.0,72.0,0.017165575532838914,4,1.5950762000866234,1.7928055999800563,7,1.0828537000343204,1.2330283001065254,0,0.3180150999687612,0.43679230008274317,,,60.0,63.0,52421,60.0,
77,-77,0,2,0,32,9,,,,,,,,,,,session,864.8628885999788,144.0,2.0,72.0,0.017165575532838914,5,1.58658010000363,1.7389563000760972,7,1.1566806000191718,1.356783099938184,1,0.01123479986563325,0.06269959989003837,,,72.0,57.0,52421,60.0,
77,77,0,2,1,33,1,,,,,,,,,,,session,873.9988586998079,168.0,2.0,72.0,0.017165575532838914,2,1.3969095000065863,1.48466209997423,0,0.011837800033390522,0.013802200090140104,0,1.0646847998723388,1.1815139998216182,,,48.0,60.0,52421,60.0,
-77,-77,45,2,2,34,14,,,,,,,,,,,session,882.9115369999781,162.0,2.0,72.0,0.017165575532838914,2,1.4836530999746174,1.600484399823472,0,0.4563174999784678,0.5897378998342901,0,0.011223700130358338,0.013130000093951821,,,57.0,48.0,52421,60.0,
77,-77,45,2,3,35,10,,,,,,,,,,,session,891.0374081998598,156.0,2.0,72.0,0.017165575532838914,2,1.0227547001559287,1.2061988001223654,0,0.32295270008035004,0.458137399982661,0,0.011054000118747354,0.01298030000180006,,,72.0,54.0,52421,60.0,
-77,-77,0,2,4,36,13,,,,,,,,,,,session,898.8640886999201,174.0,2.0,72.0,0.017165575532838914,2,0.950829700101167,1.100861500017345,0,0.2866748000960797,0.4197635999880731,0,0.011758499778807163,0.013657799921929836,,,66.0,72.0,52421,60.0,
-77,-77,-45,2,5,37,12,,,,,,,,,,,session,907.6382002998143,174.0,2.0,72.0,0.017165575532838914,2,0.6191430001053959,0.8026196002028883,0,0.5225757001899183,0.6562683000229299,0,0.01108659990131855,0.01297889999113977,,,69.0,72.0,52421,60.0,
77,77,45,2,6,38,2,,,,,,,,,,,session,915.8069829999004,150.0,2.0,72.0,0.017165575532838914,2,0.5612645999062806,0.7232482000254095,0,0.33611629996448755,0.4637366998940706,0,0.011056200135499239,0.012963500106707215,,,66.0,48.0,52421,60.0,
-77,77,-45,2,7,39,4,,,,,,,,,,,session,922.8926721999887,174.0,2.0,72.0,0.017165575532838914,2,1.0515457999426872,1.2184560000896454,0,0.2980702999047935,0.4328834000043571,0,0.011114200111478567,0.013053700095042586,,,63.0,57.0,52421,60.0,
-77,77,-45,2,7,39,4,,,materials/instructions\12_break.png,931.1711796999443,964.5021325999405,0,33.19442439987324,33.32881319988519,0.02388629992492497,33.33564390009269,,,,,,,,,,,,,,,,,,,,52421,60.0,
-77,77,0,2,8,40,5,,,,,,,,,,,session,964.5169503998477,150.0,2.0,72.0,0.017165575532838914,2,1.301869499962777,1.416729599935934,0,0.35606599994935095,0.4727356000803411,0,0.011044600047171116,0.012920599896460772,,,63.0,48.0,52421,60.0,
-77,77,45,2,9,41,6,,,,,,,,,,,session,972.8718142998405,132.0,2.0,72.0,0.017165575532838914,2,0.8503312999382615,0.9847409999929368,0,0.4769361999351531,0.6437914001289755,0,0.011192699894309044,0.01310919993557036,,,66.0,72.0,52421,60.0,
-77,-77,90,2,10,42,15,,,,,,,,,,,session,980.4577175998129,138.0,2.0,72.0,0.017165575532838914,2,0.7644804001320153,0.8823615000583231,0,0.3228651999961585,0.45633299998007715,0,0.011065199971199036,0.012971699936315417,,,57.0,63.0,52421,60.0,
77,77,-45,2,11,43,0,,,,,,,,,,,session,987.5670278999023,138.0,2.0,72.0,0.017165575532838914,5,0.9800737998448312,1.0966988999862224,1,1.0388330998830497,1.1724965998437256,0,1.1646645998116583,1.3144725000020117,,,66.0,57.0,52421,60.0,
77,77,90,2,12,44,3,,,,,,,,,,,session,997.6451433999464,168.0,2.0,72.0,0.4,5,0.6217631998006254,0.7531756998505443,6,1.109968300210312,1.2438710001297295,6,1.254296800121665,1.4042664000298828,,,57.0,57.0,52421,60.0,
-77,77,90,2,13,45,7,,,,,,,,,,,session,1007.1857477999292,126.0,2.0,72.0,0.017165575532838914,2,1.9686575999949127,2.0978522000368685,0,0.45242569991387427,0.5867433999665082,0,0.01110810018144548,0.013190800091251731,,,63.0,51.0,52421,60.0,
77,-77,-45,2,14,46,8,,,,,,,,,,,session,1015.5409189998172,138.0,2.0,72.0,0.4,4,1.2180582000873983,1.3829551001545042,1,2.0065524999517947,2.106706799939275,6,1.8038558000698686,1.9698101000394672,,,48.0,69.0,52421,60.0,
77,-77,90,2,15,47,11,,,,,,,,,,,session,1026.7006633998826,180.0,2.0,72.0,0.017165575532838914,4,2.9464934999123216,3.125077199889347,6,1.098404899938032,1.2481945001054555,1,3.159732500091195,3.3254242001567036,,,63.0,57.0,52421,60.0,
77,77,0,3,0,48,1,,,,,,,,,,,session,1040.8461927999742,162.0,2.0,72.0,0.017165575532838914,2,2.254158199997619,2.371610299916938,0,0.8251024000346661,0.9585891999304295,0,0.011903800070285797,0.01382940006442368,,,72.0,69.0,52421,60.0,
-77,77,-45,3,1,49,4,,,,,,,,,,,session,1050.677797399927,162.0,2.0,72.0,0.017165575532838914,2,0.9414882999844849,1.0744733000174165,0,0.3523931000381708,0.5022816001437604,0,0.011149199912324548,0.013149000005796552,,,57.0,66.0,52421,60.0,
-77,77,90,3,2,50,7,,,,,,,,,,,session,1058.7227795999497,138.0,2.0,72.0,0.4,2,0.36669669998809695,0.5157195997890085,6,0.7026595999486744,0.8523876999970526,6,0.2875680001452565,0.40433680010028183,,,54.0,57.0,52421,60.0,
77,-77,90,3,3,51,11,,,,,,,,,,,session,1066.097373899771,162.0,2.0,72.0,0.017165575532838914,4,2.104528399882838,2.1070767999626696,6,0.2889751000329852,0.42224609991535544,1,0.3692940000910312,0.4527827000711113,,,60.0,51.0,52421,60.0,
77,77,-45,3,4,52,0,,,,,,,,,,,session,1075.0878590999637,174.0,2.0,72.0,0.017165575532838914,2,1.9781885999254882,2.128442500019446,0,0.3385270999278873,0.47237129998393357,0,0.011273300042375922,0.013165599899366498,,,60.0,66.0,52421,60.0,
77,77,45,3,5,53,2,,,,,,,,,,,session,1084.780758399982,126.0,2.0,72.0,0.017165575532838914,2,0.9842098001390696,1.1176510001532733,0,0.7495400998741388,0.9163003999274224,0,0.011052099987864494,0.012993699871003628,,,66.0,60.0,52421,60.0,
-77,-77,0,3,6,54,13,,,,,,,,,,,session,1092.4728200999089,138.0,2.0,72.0,0.017165575532838914,2,0.7169000001158565,0.8678915000054985,0,0.3582039000466466,0.48606610018759966,0,0.011087700026109815,0.01299660000950098,,,72.0,54.0,52421,60.0,
77,77,90,3,7,55,3,,,,,,,,,,,session,1099.7036209998187,144.0,2.0,72.0,0.017165575532838914,2,0.3705088999122381,0.4882223999593407,0,0.4420614999253303,0.6090428999159485,0,0.011058199917897582,0.013112100074067712,,,48.0,60.0,52421,60.0,
-77,-77,45,3,8,56,14,,,,,,,,,,,session,1106.8074741999153,162.0,2.0,72.0,0.017165575532838914,3,1.2844209999311715,1.451293199788779,6,0.3213720000348985,0.4714550001081079,1,0.31986279995180666,0.3864905000664294,,,60.0,69.0,52421,60.0,
-77,77,0,3,9,57,5,,,,,,,,,,,session,1115.400710299844,156.0,2.0,72.0,0.017165575532838914,3,1.2039028001017869,1.3873467999510467,1,1.5310245999135077,1.668470500037074,1,0.31225540000014007,0.4259970001876354,,,60.0,63.0,52421,60.0,
-77,77,45,3,10,58,6,,,,,,,,,,,session,1124.9787054997869,126.0,2.0,72.0,0.017165575532838914,2,1.9656711998395622,2.0666928999125957,0,0.4036656999960542,0.5537123999092728,0,0.011127399979159236,0.013027000008150935,,,51.0,66.0,52421,60.0,
77,-77,-45,3,11,59,8,,,,,,,,,,,session,1133.1238546997774,180.0,2.0,72.0,0.017165575532838914,2,0.802588100079447,0.9507560001220554,0,0.30300710001029074,0.4528204998932779,0,0.011120999930426478,0.013038999866694212,,,72.0,66.0,52421,60.0,
77,-77,-45,3,11,59,8,,,materials/instructions\12_break.png,1141.3110783998854,1142.6199425999075,0,1.1394092000555247,1.3068313000258058,0.010924499947577715,1.321728799957782,,,,,,,,,,,,,,,,,,,,52421,60.0,
77,-77,0,3,12,60,9,,,,,,,,,,,session,1142.6431568998378,156.0,2.0,72.0,0.017165575532838914,4,0.4145535998977721,0.5985765000805259,0,1.0373229999095201,1.3214133998844773,0,0.011276599951088428,0.013113399967551231,,,48.0,60.0,52421,60.0,
-77,-77,-45,3,13,61,12,,,,,,,,,,,session,1151.0884120999835,126.0,2.0,72.0,0.4,3,0.804008899955079,0.9697147998958826,1,1.659286200068891,1.808291400084272,1,0.3826627000235021,0.4826587000861764,,,69.0,51.0,52421,60.0,
77,-77,45,3,14,62,10,,,,,,,,,,,session,1159.9188473999966,168.0,2.0,72.0,0.017165575532838914,4,0.48403729987330735,0.6675080999266356,7,0.966761999996379,1.1000385000370443,1,0.9481697999872267,1.1127239000052214,,,60.0,72.0,52421,60.0,
-77,-77,90,3,15,63,15,,,,,,,,,,,session,1169.278535899939,180.0,2.0,72.0,0.017165575532838914,2,1.3678454998880625,1.5179349998943508,0,0.036184499971568584,0.07023980002850294,0,0.011319200042635202,0.14661379996687174,,,66.0,54.0,52421,60.0,
-77,-77,-45,4,0,64,12,,,,,,,,,,,session,1177.4637332998682,174.0,2.0,72.0,0.017165575532838914,4,1.4036847001407295,1.5698365001007915,7,1.0524307999294251,1.1853437998797745,0,0.011292400071397424,0.21881369990296662,,,51.0,66.0,52421,60.0,
77,77,45,4,1,65,2,,,,,,,,,,,session,1186.7386735999025,150.0,2.0,72.0,0.4,5,0.5626412001438439,0.7453568000346422,7,1.0727200000546873,1.2548442999832332,6,0.35127900005318224,0.5194500000216067,,,66.0,72.0,52421,60.0,
-77,-77,45,4,2,66,14,,,,,,,,,,,session,1196.08149019978,174.0,2.0,72.0,0.017165575532838914,4,1.5551605999935418,1.7215084000490606,0,0.09452659985981882,0.2251265998929739,0,0.010967799928039312,0.013084599981084466,,,51.0,57.0,52421,60.0,
77,-77,90,4,3,67,11,,,,,,,,,,,session,1204.1814009998925,174.0,2.0,72.0,0.017165575532838914,2,0.919646899914369,1.0697420998476446,0,0.3189531001262367,0.4524125000461936,0,0.01101839984767139,0.012950799893587828,,,72.0,57.0,52421,60.0,
-77,77,0,4,4,68,5,,,,,,,,,,,session,1212.2625694999006,156.0,2.0,72.0,0.017165575532838914,2,1.155684099998325,1.287100300192833,0,0.22116549988277256,0.4036783999763429,0,0.011142500210553408,0.013058700133115053,,,48.0,72.0,52421,60.0,
77,77,90,4,5,69,3,,,,,,,,,,,session,1220.014094099868,150.0,2.0,72.0,0.017165575532838914,2,0.7696583999786526,0.8864040998741984,0,0.5378125999122858,0.7076340999919921,0,0.010886500123888254,0.012816800037398934,,,72.0,63.0,52421,60.0,
77,-77,-45,4,6,70,8,,,,,,,,,,,session,1227.8146439997945,132.0,2.0,72.0,0.017165575532838914,2,0.8137093998957425,0.9023001999594271,0,0.011298600118607283,0.11673599993810058,0,0.011214100057259202,0.01314619998447597,,,60.0,57.0,52421,60.0,
77,77,0,4,7,71,1,,,,,,,,,,,session,1234.5391769998241,180.0,2.0,72.0,0.017165575532838914,2,0.8145339000038803,0.9640654001850635,0,0.30611500004306436,0.4386930998880416,0,0.011169600067660213,0.012991900090128183,,,60.0,63.0,52421,60.0,
77,-77,45,4,8,72,10,,,,,,,,,,,session,1242.4608216998167,156.0,2.0,72.0,0.017165575532838914,2,0.7730780001729727,0.9406727000605315,0,0.3885139001067728,0.5703390999697149,0,0.011890199966728687,0.011867000022903085,,,66.0,51.0,52421,60.0,
-77,-77,0,4,9,73,13,,,,,,,,,,,session,1249.9792847998906,168.0,2.0,72.0,0.017165575532838914,2,0.6581158998887986,0.7919256000313908,0,0.5388355001341552,0.7052558001596481,0,0.011091699823737144,0.0129935999866575,,,66.0,57.0,52421,60.0,
77,-77,0,4,10,74,9,,,,,,,,,,,session,1258.0719614999834,174.0,2.0,72.0,0.017165575532838914,2,0.6812257999554276,0.8147166999988258,0,0.45675230002962053,0.6890938000287861,0,0.01118630007840693,0.013168300036340952,,,60.0,66.0,52421,60.0,
-77,-77,90,4,11,75,15,,,,,,,,,,,session,1266.0561134999152,132.0,2.0,72.0,0.017165575532838914,2,0.677865199977532,0.8445929998997599,0,0.3741557998582721,0.5088231998961419,0,0.011640500044450164,0.013558799866586924,,,69.0,54.0,52421,60.0,
77,77,-45,4,12,76,0,,,,,,,,,,,session,1273.0954402999487,180.0,2.0,72.0,0.017165575532838914,5,1.4429270999971777,1.5959611998405308,1,0.853114299941808,1.0198397999629378,0,0.3119299001991749,0.4459162000566721,,,69.0,54.0,52421,60.0,
-77,77,-45,4,13,77,4,,,,,,,,,,,session,1283.2826599997934,126.0,2.0,72.0,0.017165575532838914,2,1.0993254999630153,1.2152116999495775,0,0.3397186000365764,0.539769200142473,0,0.011260499944910407,0.013252999866381288,,,51.0,51.0,52421,60.0,
-77,77,90,4,14,78,7,,,,,,,,,,,session,1290.2914656999055,150.0,2.0,72.0,0.017165575532838914,2,0.6704706999007612,0.7863330999389291,0,0.5589987998828292,0.7420616999734193,0,0.01116829994134605,0.01308399997651577,,,48.0,48.0,52421,60.0,
-77,77,45,4,15,79,6,,,,,,,,,,,session,1297.3923753998242,174.0,2.0,72.0,0.017165575532838914,2,0.9056388000026345,1.041066600009799,0,0.18318259995430708,0.38614449999295175,0,0.01104069990105927,0.012955799931660295,,,54.0,66.0,52421,60.0,
-77,77,45,4,15,79,6,,,materials/instructions\12_break.png,1305.7590347998776,1317.98634019983,0,12.07544060004875,12.225167500087991,0.022901399992406368,12.233378400094807,,,,,,,,,,,,,,,,,,,,52421,60.0,
77,-77,45,5,0,80,10,,,,,,,,,,,session,1318.0022171000019,156.0,2.0,72.0,0.017165575532838914,2,1.35053570009768,1.4999504000879824,0,0.3707840000279248,0.5707868998870254,0,0.011056799907237291,0.012979899998754263,,,48.0,66.0,52421,60.0,
77,-77,-45,5,1,81,8,,,,,,,,,,,session,1326.7096333999652,180.0,2.0,72.0,0.017165575532838914,2,0.682247799821198,0.8330895998515189,0,0.5922580000478774,0.7421989000868052,0,0.011323899962008,0.013286300003528595,,,51.0,63.0,52421,60.0,
77,77,0,5,2,82,1,,,,,,,,,,,session,1334.6455575998407,132.0,2.0,72.0,0.017165575532838914,2,0.6999009000137448,0.8015258000232279,0,0.3720250998158008,0.5704467999748886,0,0.01180110010318458,0.013605000218376517,,,60.0,66.0,52421,60.0,
-77,-77,45,5,3,83,14,,,,,,,,,,,session,1341.8467253998388,180.0,2.0,72.0,0.017165575532838914,2,0.012090799864381552,0.014013599837198853,0,0.29043659986928105,0.4046518998220563,0,0.011094499845057726,0.012993799988180399,,,54.0,54.0,52421,60.0,
-77,77,90,5,4,84,7,,,,,,,,,,,session,1348.9946627998725,156.0,2.0,72.0,0.017165575532838914,2,1.0007209000177681,1.117431899998337,0,0.011434100102633238,0.14245030004531145,0,0.011059400159865618,0.012935100123286247,,,57.0,57.0,52421,60.0,
77,77,90,5,5,85,3,,,,,,,,,,,session,1356.2299250999931,168.0,2.0,72.0,0.4,5,1.0174814001657069,1.1841470999643207,6,0.7212374999653548,0.8889845998492092,6,0.9575126001145691,1.1289469001349062,,,60.0,54.0,52421,60.0,
77,77,45,5,6,86,2,,,,,,,,,,,session,1365.6005148999393,180.0,2.0,72.0,0.017165575532838914,2,1.0520147001370788,1.2014635999221355,0,0.436352499993518,0.8700985999312252,0,0.7353012999519706,0.9180584000423551,,,48.0,63.0,52421,60.0,
77,77,-45,5,7,87,0,,,,,,,,,,,session,1374.931853499962,126.0,2.0,72.0,0.017165575532838914,2,2.3704229998402297,2.5705677999649197,0,0.35689900000579655,0.5220143001060933,0,0.011085800128057599,0.013006699969992042,,,57.0,51.0,52421,60.0,
-77,77,0,5,8,88,5,,,,,,,,,,,session,1383.3829791999888,168.0,2.0,72.0,0.017165575532838914,2,1.7133472999557853,1.843768599908799,0,0.4526766000781208,0.6028094999492168,0,0.011358399875462055,0.013298899866640568,,,57.0,72.0,52421,60.0,
-77,-77,0,5,9,89,13,,,,,,,,,,,session,1392.8763661999255,162.0,2.0,72.0,0.017165575532838914,2,0.3840590000618249,0.5173646998591721,0,0.5556246000342071,0.689075900008902,0,0.011352099943906069,0.013280400075018406,,,57.0,51.0,52421,60.0,
-77,-77,-45,5,10,90,12,,,,,,,,,,,session,1400.0443427998107,126.0,2.0,72.0,0.017165575532838914,2,0.8888356999959797,1.0389274000190198,0,1.0037704999558628,1.171949400100857,0,0.011597500182688236,0.013469000114127994,,,57.0,54.0,52421,60.0,
77,-77,90,5,11,91,11,,,,,,,,,,,session,1407.6665072999895,126.0,2.0,72.0,0.017165575532838914,2,0.7825468999799341,0.9303653999231756,0,0.4557952000759542,0.6056222000624985,0,0.011055199895054102,0.012970200041308999,,,57.0,48.0,52421,60.0,
-77,77,-45,5,12,92,4,,,,,,,,,,,session,1415.111084899865,126.0,2.0,72.0,0.017165575532838914,2,1.0012232000008225,1.150481600081548,0,0.5210359999909997,0.6730517998803407,0,0.011196699924767017,0.013148199999704957,,,69.0,48.0,52421,60.0,
-77,-77,90,5,13,93,15,,,,,,,,,,,session,1422.4330520997755,180.0,2.0,72.0,0.4,3,0.3695634000468999,0.553135700058192,6,1.0027828998863697,1.1696746000088751,6,3.649398799985647,3.8496040999889374,,,72.0,72.0,52421,60.0,
77,-77,0,5,14,94,9,,,,,,,,,,,session,1434.8851052999962,144.0,2.0,72.0,0.4,4,0.392823499860242,0.6583846998400986,0,0.5693749999627471,0.7693069998640567,7,0.36883159982971847,0.5523736998438835,,,48.0,72.0,52421,60.0,
-77,77,45,5,15,95,6,,,,,,,,,,,session,1442.734868899919,156.0,2.0,72.0,0.017165575532838914,2,1.5354639000725,1.6688495001289994,0,0.3039471998345107,0.47072390001267195,0,0.011092300061136484,0.013235000194981694,,,69.0,48.0,52421,60.0,
-77,77,0,6,0,96,5,,,,,,,,,,,session,1450.8846010998823,168.0,2.0,72.0,0.4,2,0.2972277000080794,0.44711529999040067,0,0.6204493001569062,0.8038655000273138,6,1.3155670000705868,1.495894500054419,,,66.0,69.0,52421,60.0,
77,-77,0,6,1,97,9,,,,,,,,,,,session,1460.7643668998498,132.0,2.0,72.0,0.017165575532838914,2,1.4043159999419004,1.537772199837491,0,0.17169929994270205,0.3051562998443842,0,0.011460399953648448,0.013363900128751993,,,57.0,69.0,52421,60.0,
77,77,-45,6,2,98,0,,,,,,,,,,,session,1468.3774714998435,180.0,2.0,72.0,0.017165575532838914,5,1.9114454998634756,2.1060723999980837,1,1.105253400048241,1.2207163001876324,1,1.0032601000275463,1.137871199985966,,,72.0,72.0,52421,60.0,
77,-77,90,6,3,99,11,,,,,,,,,,,session,1479.720417499775,174.0,2.0,72.0,0.017165575532838914,2,1.1355492000002414,1.2523330000694841,7,0.7249934000428766,0.9270235998556018,1,0.5672075999900699,0.7008854998275638,,,54.0,66.0,52421,60.0,
77,-77,90,6,3,99,11,,,materials/instructions\12_break.png,1488.976162499981,1490.117278299993,0,1.0064713000319898,1.1389499001670629,0.01087210001423955,1.1464988999068737,,,,,,,,,,,,,,,,,,,,52421,60.0,
-77,77,90,6,4,100,7,,,,,,,,,,,session,1490.1323118999135,162.0,2.0,72.0,0.017165575532838914,2,0.739026099909097,0.8560239998623729,0,0.28472779993899167,0.47386020002886653,0,0.010990200098603964,0.01274190004914999,,,66.0,69.0,52421,60.0,
77,77,0,6,5,101,1,,,,,,,,,,,session,1497.8626990998164,138.0,2.0,72.0,0.4,5,0.45468439999967813,0.6214054001029581,0,0.8877501001115888,1.105423599947244,6,0.43747000000439584,0.671002599876374,,,54.0,60.0,52421,60.0,
-77,-77,90,6,6,102,15,,,,,,,,,,,session,1506.0660484998953,180.0,2.0,72.0,0.017165575532838914,2,3.681110099889338,3.7977952999062836,0,0.3177257999777794,0.41781529993750155,0,0.011024400126188993,0.012876000022515655,,,72.0,69.0,52421,60.0,
77,-77,45,6,7,103,10,,,,,,,,,,,session,1517.106468099868,138.0,2.0,72.0,0.017165575532838914,2,0.7761679000686854,0.9597263000905514,0,0.33435610006563365,0.5008950000628829,0,0.011087399907410145,0.013010299997404218,,,63.0,48.0,52421,60.0,
77,-77,-45,6,8,104,8,,,,,,,,,,,session,1524.725933499867,150.0,2.0,72.0,0.017165575532838914,2,0.7827540000434965,0.9159711000975221,0,0.42246840009465814,0.6054094999562949,0,0.011212499812245369,0.013129799859598279,,,57.0,48.0,52421,60.0,
77,77,90,6,9,105,3,,,,,,,,,,,session,1531.9616703998763,174.0,2.0,72.0,0.4,5,0.33452529995702207,0.5359797000419348,6,0.6552597999107093,0.8054567000363022,7,0.27900719991885126,0.4221491999924183,,,63.0,60.0,52421,60.0,
-77,77,-45,6,10,106,4,,,,,,,,,,,session,1540.1291822998319,132.0,2.0,72.0,0.017165575532838914,2,1.1784997000358999,1.3452868000604212,1,1.455102999927476,1.590673599857837,1,0.40350420004688203,0.5534777999855578,,,60.0,51.0,52421,60.0,
-77,-77,45,6,11,107,14,,,,,,,,,,,session,1549.8366826998536,126.0,2.0,72.0,0.017165575532838914,2,1.2185249999165535,1.386166799813509,0,1.3265849000308663,1.4445292002055794,0,0.5527665000408888,0.7042082999832928,,,69.0,66.0,52421,60.0,
-77,-77,-45,6,12,108,12,,,,,,,,,,,session,1559.1738262998406,132.0,2.0,72.0,0.017165575532838914,2,1.0952774998731911,1.2070965999737382,0,0.6704929999541491,0.8346676998771727,0,0.011421500006690621,0.013361500110477209,,,69.0,66.0,52421,60.0,
-77,-77,0,6,13,109,13,,,,,,,,,,,session,1567.1263477997854,150.0,2.0,72.0,0.017165575532838914,2,2.83681849995628,2.9524080001283437,0,0.6055998997762799,0.7879674998112023,0,0.5567272000480443,0.7246167999692261,,,57.0,60.0,52421,60.0,
77,77,45,6,14,110,2,,,,,,,,,,,session,1577.4878280998673,162.0,2.0,72.0,0.017165575532838914,2,0.7011095001362264,0.8509202999994159,0,0.6390929999761283,0.7888336998876184,0,0.6986718999687582,0.848273399984464,,,66.0,54.0,52421,60.0,
-77,77,45,6,15,111,6,,,,,,,,,,,session,1586.120237799827,180.0,2.0,72.0,0.017165575532838914,2,0.46884200000204146,0.6522327999118716,0,0.011635500006377697,0.206759599968791,0,0.011067199986428022,0.012941500172019005,,,69.0,63.0,52421,60.0,
-77,-77,90,7,0,112,15,,,,,,,,,,,session,1593.860566899879,156.0,2.0,72.0,0.017165575532838914,2,0.7708511999808252,0.9043554000090808,0,0.48723769979551435,0.6712839999236166,0,0.011215600185096264,0.013122500153258443,,,51.0,60.0,52421,60.0,
77,-77,-45,7,1,113,8,,,,,,,,,,,session,1601.3486720998771,162.0,2.0,72.0,0.017165575532838914,2,0.736096499953419,0.8861647001467645,0,0.011387099977582693,0.1101543998811394,0,0.011000100057572126,0.012917299987748265,,,69.0,72.0,52421,60.0,
-77,-77,0,7,2,114,13,,,,,,,,,,,session,1608.8787405998446,156.0,2.0,72.0,0.017165575532838914,2,2.8204302999656647,2.96949140005745,0,0.571215300122276,0.7046252000145614,0,0.011050600092858076,0.012941299937665462,,,72.0,72.0,52421,60.0,
-77,77,45,7,3,115,6,,,,,,,,,,,session,1619.098907199921,162.0,2.0,72.0,0.017165575532838914,2,0.5739029000978917,0.7237728999461979,0,0.3498496001120657,0.4845620999112725,0,0.012308100005611777,0.014218900119885802,,,63.0,54.0,52421,60.0,
77,77,-45,7,4,116,0,,,,,,,,,,,session,1626.4000659999438,174.0,2.0,72.0,0.017165575532838914,2,0.6775295999832451,0.8278169999830425,0,0.3874715000856668,0.5541737000457942,0,0.011103799799457192,0.013004699954763055,,,60.0,66.0,52421,60.0,
77,77,0,7,5,117,1,,,,,,,,,,,session,1634.812322099926,144.0,2.0,72.0,0.017165575532838914,2,0.6346334000118077,0.7683609998784959,0,0.5563002999406308,0.6889158999547362,0,0.011069600004702806,0.012986599933356047,,,66.0,48.0,52421,60.0,
77,-77,45,7,6,118,10,,,,,,,,,,,session,1642.0339449997991,168.0,2.0,72.0,0.017165575532838914,2,0.3545777997933328,0.4879222000017762,0,0.3699707998894155,0.45328689995221794,0,0.011078299954533577,0.013181200018152595,,,72.0,60.0,52421,60.0,
-77,77,90,7,7,119,7,,,,,,,,,,,session,1649.4371677997988,156.0,2.0,72.0,0.4,2,0.4950311998836696,0.6277903998270631,6,0.8213748000562191,0.9892912001814693,6,0.5159149998798966,0.6671398999169469,,,60.0,48.0,52421,60.0,
-77,77,90,7,7,119,7,,,materials/instructions\12_break.png,1658.121833199868,1714.5735714999028,0,56.24946920014918,56.449560299981385,0.01340689999051392,56.456484200200066,,,,,,,,,,,,,,,,,,,,52421,60.0,
-77,77,-45,7,8,120,4,,,,,,,,,,,session,1714.5883287999313,174.0,2.0,72.0,0.017165575532838914,2,1.4532170998863876,1.5874931998550892,0,0.4868362999986857,0.5863393000327051,0,0.011960200034081936,0.013827600050717592,,,57.0,69.0,52421,60.0,
77,77,90,7,9,121,3,,,,,,,,,,,session,1723.791618899908,174.0,2.0,72.0,0.4,5,0.9356079001445323,1.0696750001516193,6,0.5773075998295099,0.7430475000292063,6,2.7406919000204653,2.923080899985507,,,54.0,63.0,52421,60.0,
77,77,45,7,10,122,2,,,,,,,,,,,session,1734.8234927998856,132.0,2.0,72.0,0.017165575532838914,5,1.2010747999884188,1.3934547000098974,7,1.1805082999635488,1.3351976000703871,1,1.4223896998446435,1.5515133999288082,,,48.0,57.0,52421,60.0,
-77,77,0,7,11,123,5,,,,,,,,,,,session,1744.5353249998298,138.0,2.0,72.0,0.017165575532838914,2,2.8977536000311375,2.9645360999275,0,0.6199058999773115,0.7699577999301255,0,0.5723945000208914,0.78842439991422,,,63.0,57.0,52421,60.0,
-77,-77,45,7,12,124,14,,,,,,,,,,,session,1754.8394470999483,150.0,2.0,72.0,0.017165575532838914,4,0.9362913998775184,1.1524483000393957,6,1.6305023999884725,1.8633512000087649,1,1.1188954000826925,1.285253900103271,,,63.0,57.0,52421,60.0,
77,-77,90,7,13,125,11,,,,,,,,,,,session,1765.0879799998365,162.0,2.0,72.0,0.017165575532838914,2,1.5322977001778781,1.6815626001916826,0,1.0874927998520434,1.2376561998389661,0,0.6484071998856962,0.7996336000505835,,,63.0,51.0,52421,60.0,
-77,-77,-45,7,14,126,12,,,,,,,,,,,session,1774.8716911999509,144.0,2.0,72.0,0.017165575532838914,2,1.0032434000167996,1.153580900048837,0,0.9718959999736398,1.1384374999906868,0,0.4165316999424249,0.6167230999562889,,,66.0,51.0,52421,60.0,
77,-77,0,7,15,127,9,,,,,,,,,,,session,1783.5773721998557,180.0,2.0,72.0,0.017165575532838914,2,0.7006240000482649,0.8488225999753922,0,0.9218540999572724,1.105378899956122,0,0.012017499888315797,0.013770799851045012,,,48.0,60.0,52421,60.0,
-77,77,45,8,0,128,6,,,,,,,,,,,session,1792.4123610998504,168.0,2.0,72.0,0.4,2,0.3825372001156211,0.5660790000110865,7,2.1080037001520395,2.326759400079027,6,0.3206723998300731,0.48774109990336,,,54.0,51.0,52421,60.0,
-77,-77,0,8,1,129,13,,,,,,,,,,,session,1801.7764048997778,174.0,2.0,72.0,0.017165575532838914,2,1.0434353998862207,1.1653266998473555,0,0.5367594000417739,0.6904972000047565,0,0.01121259992942214,0.013206399977207184,,,72.0,63.0,52421,60.0,
77,77,90,8,2,130,3,,,,,,,,,,,session,1810.3434643999208,150.0,2.0,72.0,0.017165575532838914,2,0.8530966001562774,1.0031483001075685,0,0.3385341002140194,0.5900045000016689,0,0.012235699919983745,0.014164600055664778,,,72.0,51.0,52421,60.0,
-77,-77,90,8,3,131,15,,,,,,,,,,,session,1817.9486644999124,156.0,2.0,72.0,0.4,3,0.34080750006251037,0.45668930001556873,6,0.572280100081116,0.6889629000797868,1,0.8507862999103963,0.9833040998782963,,,60.0,66.0,52421,60.0,
77,-77,90,8,4,132,11,,,,,,,,,,,session,1826.2266496999655,156.0,2.0,72.0,0.017165575532838914,3,1.150300099980086,1.267071699956432,0,0.3412464000284672,0.4907257000450045,0,0.011302200146019459,0.01325020007789135,,,48.0,54.0,52421,60.0,
-77,-77,-45,8,5,133,12,,,,,,,,,,,session,1834.4494549999945,180.0,2.0,72.0,0.017165575532838914,2,1.768299699993804,1.9017853001132607,0,0.7409373000264168,0.8599982999730855,0,0.010976499877870083,0.012965200003236532,,,69.0,60.0,52421,60.0,
77,-77,0,8,6,134,9,,,,,,,,,,,session,1843.8130922999699,156.0,2.0,72.0,0.017165575532838914,2,0.43721550004556775,0.570684100035578,0,0.3901389001403004,0.608908399939537,0,0.011007599998265505,0.013092800043523312,,,66.0,69.0,52421,60.0,
-77,-77,45,8,7,135,14,,,,,,,,,,,session,1851.3147676999215,180.0,2.0,72.0,0.017165575532838914,2,1.5397467999719083,1.689802800072357,0,0.6209463998675346,0.7720345000270754,0,0.011255000019446015,0.013172199949622154,,,54.0,54.0,52421,60.0,
77,77,-45,8,8,136,0,,,,,,,,,,,session,1860.2783753999975,174.0,2.0,72.0,0.017165575532838914,2,0.5886527998372912,0.7062056998256594,0,0.47118570003658533,0.6068260001484305,0,0.011306900065392256,0.013188200071454048,,,54.0,66.0,52421,60.0,
77,-77,-45,8,9,137,8,,,,,,,,,,,session,1867.9492380998563,168.0,2.0,72.0,0.017165575532838914,2,0.5077306998427957,0.6632665998768061,0,0.011577800149098039,0.07691130018793046,0,0.011634299997240305,0.013498400105163455,,,57.0,63.0,52421,60.0,
77,77,0,8,10,138,1,,,,,,,,,,,session,1875.0127724998165,126.0,2.0,72.0,0.017165575532838914,2,0.6019047000445426,0.7350341000128537,0,0.3687589999753982,0.5354824000969529,0,0.01101849996484816,0.012911099940538406,,,60.0,66.0,52421,60.0,
77,77,45,8,11,139,2,,,,,,,,,,,session,1881.9492712998763,174.0,2.0,72.0,0.017165575532838914,2,0.552598999813199,0.7222691997885704,0,1.2402559998445213,1.3736944999545813,0,0.011111400090157986,0.013000300154089928,,,48.0,60.0,52421,60.0,
77,77,45,8,11,139,2,,,materials/instructions\12_break.png,1890.2058056998067,1901.3172535998747,0,10.925905499840155,11.109441099921241,0.02058110013604164,11.116980500053614,,,,,,,,,,,,,,,,,,,,52421,60.0,
-77,77,-45,8,12,140,4,,,,,,,,,,,session,1901.3331057999749,150.0,2.0,72.0,0.017165575532838914,2,0.8751367998775095,1.0252677998505533,0,0.32147060008719563,0.4391691000200808,0,0.01195230009034276,0.013883000006899238,,,63.0,69.0,52421,60.0,
77,-77,45,8,13,141,10,,,,,,,,,,,session,1908.9786536998581,174.0,2.0,72.0,0.017165575532838914,2,0.9367496999911964,1.0538296999875456,0,0.5546502999495715,0.6629653999116272,0,0.012090499978512526,0.014008500147610903,,,69.0,57.0,52421,60.0,
-77,77,90,8,14,142,7,,,,,,,,,,,session,1917.1544796999078,138.0,2.0,72.0,0.4,2,0.9303544000722468,1.097860500216484,6,0.5813498999923468,0.7504927001427859,6,0.3201860999688506,0.5190002999734133,,,54.0,60.0,52421,60.0,
-77,77,0,8,15,143,5,,,,,,,,,,,session,1925.4877677999903,168.0,2.0,72.0,0.017165575532838914,2,1.7347828999627382,1.8358796001411974,0,0.6240419000387192,0.773651999887079,0,0.983799799811095,1.16586870001629,,,63.0,69.0,52421,60.0,
-77,-77,0,9,0,144,13,,,,,,,,,,,session,1935.6941384999081,162.0,2.0,72.0,0.017165575532838914,2,0.6462562999222428,0.7796858998481184,0,0.30510149989277124,0.47103210003115237,0,0.0110856001265347,0.012982900021597743,,,60.0,66.0,52421,60.0,
-77,77,-45,9,1,145,4,,,,,,,,,,,session,1943.5463876998983,144.0,2.0,72.0,0.017165575532838914,2,0.9669251998420805,1.1003195999655873,0,0.41743110003881156,0.7842806000262499,0,0.011087900027632713,0.012978000100702047,,,51.0,51.0,52421,60.0,
-77,77,0,9,2,146,5,,,,,,,,,,,session,1950.9800607999787,174.0,2.0,72.0,0.017165575532838914,2,1.3573351001832634,1.4747449001297355,0,0.3245471001137048,0.4582384000532329,1,0.2813486000522971,0.41376989986747503,,,57.0,51.0,52421,60.0,
77,-77,0,9,3,147,9,,,,,,,,,,,session,1959.462538599968,180.0,2.0,72.0,0.017165575532838914,5,1.516398899955675,1.679764699889347,1,0.3919227998703718,0.49215710000135005,0,0.5003893999382854,0.6838463998865336,,,48.0,57.0,52421,60.0,
77,77,-45,9,4,148,0,,,,,,,,,,,session,1969.2532393999863,162.0,2.0,72.0,0.017165575532838914,5,0.7551710000261664,0.905348600121215,0,0.012227799976244569,0.014134899945929646,0,0.011070499895140529,0.013134599896147847,,,72.0,63.0,52421,60.0,
-77,-77,90,9,5,149,15,,,,,,,,,,,session,1976.5858201999217,156.0,2.0,72.0,0.4,3,0.2856190998572856,0.43576599983498454,6,0.7443355000577867,0.895316299982369,7,0.01105269999243319,0.012986999936401844,,,69.0,69.0,52421,60.0,
-77,-77,-45,9,6,150,12,,,,,,,,,,,session,1984.2847524997778,144.0,2.0,72.0,0.4,3,0.28658730001188815,0.4386491999030113,1,0.8537347000092268,0.9861216999124736,7,0.5830214000307024,0.7330415998585522,,,57.0,63.0,52421,60.0,
77,77,45,9,7,151,2,,,,,,,,,,,session,1992.3871576997917,150.0,2.0,72.0,0.4,5,0.45261349994689226,0.6025845999829471,7,1.0402373000979424,1.2062578999903053,7,0.339880800107494,0.5229782001115382,,,60.0,57.0,52421,60.0,
-77,77,45,9,8,152,6,,,,,,,,,,,session,2000.6112513998523,132.0,2.0,72.0,0.4,2,0.5272238999605179,0.6925439999904484,7,0.950385499978438,1.1340002999641001,7,0.8708122000098228,1.0513110000174493,,,66.0,57.0,52421,60.0,
77,-77,90,9,9,153,11,,,,,,,,,,,session,2009.1871900998522,174.0,2.0,72.0,0.4,4,0.2824566001072526,0.44928749999962747,6,0.39096560003235936,0.5577787000220269,7,2.0376859998796135,2.1879218998365104,,,72.0,51.0,52421,60.0,
77,-77,45,9,10,154,10,,,,,,,,,,,session,2018.7901221998036,162.0,2.0,72.0,0.017165575532838914,2,1.7624725999776274,1.895235599949956,0,0.9783968001138419,1.1729125999845564,0,0.011886699823662639,0.013653599889948964,,,60.0,69.0,52421,60.0,
77,77,0,9,11,155,1,,,,,,,,,,,session,2028.2194436998107,156.0,2.0,72.0,0.017165575532838914,5,0.6349545000120997,0.8018191999290138,0,1.1041145001072437,1.2875558999367058,6,0.4008131998125464,0.6357872998341918,,,51.0,66.0,52421,60.0,
-77,-77,45,9,12,156,14,,,,,,,,,,,session,2037.155347699998,162.0,2.0,72.0,0.4,3,0.36634989990852773,0.5165174999274313,7,1.0903068999759853,1.3070601001381874,6,0.8301015000324696,1.0143615000415593,,,54.0,63.0,52421,60.0,
-77,77,90,9,13,157,7,,,,,,,,,,,session,2046.0792094999924,180.0,2.0,72.0,0.017165575532838914,2,1.4802279002033174,1.6603275001980364,0,0.33600430004298687,0.4887135000899434,0,0.011092399945482612,0.012961999978870153,,,54.0,48.0,52421,60.0,
77,77,90,9,14,158,3,,,,,,,,,,,session,2054.901520599844,138.0,2.0,72.0,0.017165575532838914,2,0.7193899999838322,0.8507105000317097,0,0.4419997001532465,0.6422729999758303,0,0.011426599929109216,0.01327809994108975,,,72.0,69.0,52421,60.0,
77,-77,-45,9,15,159,8,,,,,,,,,,,session,2062.517479599919,150.0,2.0,72.0,0.017165575532838914,2,0.5845023000147194,0.7346203001216054,0,0.8926054001785815,1.0393807999789715,0,0.011140899965539575,0.01305109984241426,,,57.0,54.0,52421,60.0,
77,-77,-45,9,15,159,8,,,materials/instructions\12_break.png,2070.1042861999013,2093.2516474998556,0,22.99669130006805,23.145707600051537,0.010463700164109468,23.15336720016785,,,,,,,,,,,,,,,,,,,,52421,60.0,
77,77,45,10,0,160,2,,,,,,,,,,,session,2093.268154299818,132.0,2.0,72.0,0.017165575532838914,2,0.9425192000344396,1.0797573998570442,0,0.3736098001245409,0.6073212001938373,0,0.011073000030592084,0.013115599984303117,,,57.0,63.0,52421,60.0,
-77,77,-45,10,1,161,4,,,,,,,,,,,session,2101.1821726998314,132.0,2.0,72.0,0.4,2,0.3534687999635935,0.4703971000853926,1,0.605773099930957,0.7372069999109954,6,4.1547726998105645,4.321529999841005,,,63.0,69.0,52421,60.0,
-77,77,0,10,2,162,5,,,,,,,,,,,session,2112.5630416998174,168.0,2.0,72.0,0.017165575532838914,2,0.9801612000446767,1.1806785999797285,0,0.7077772999182343,0.855855300091207,0,0.011242899810895324,0.013121899915859103,,,66.0,48.0,52421,60.0,
77,-77,45,10,3,163,10,,,,,,,,,,,session,2121.266240199795,126.0,2.0,72.0,0.4,4,0.48696039989590645,0.6524429998826236,7,0.7027000999078155,0.8694893999490887,6,1.0558295999653637,1.2397912999149412,,,66.0,63.0,52421,60.0,
-77,77,45,10,4,164,6,,,,,,,,,,,session,2129.724862599978,132.0,2.0,72.0,0.017165575532838914,2,0.985635400051251,1.1357374000363052,0,0.32239949982613325,0.47260629991069436,0,0.012271299958229065,0.014173700008541346,,,60.0,63.0,52421,60.0,
-77,-77,45,10,5,165,14,,,,,,,,,,,session,2137.05626309989,156.0,2.0,72.0,0.017165575532838914,2,1.1152957000304013,1.248840499902144,0,0.3382141999900341,0.45622890000231564,0,0.010833400068804622,0.012592799961566925,,,51.0,54.0,52421,60.0,
77,-77,0,10,6,166,9,,,,,,,,,,,session,2145.175603899872,126.0,2.0,72.0,0.017165575532838914,3,0.848588400054723,1.0001193000935018,0,0.2883785997983068,0.4215308998245746,0,0.011022899998351932,0.012889999896287918,,,69.0,72.0,52421,60.0,
-77,-77,90,10,7,167,15,,,,,,,,,,,session,2152.5056073998567,174.0,2.0,72.0,0.017165575532838914,2,0.8085279001388699,0.9420344000682235,0,0.011456900043413043,0.013465899974107742,0,0.011137200053781271,0.013073300011456013,,,57.0,57.0,52421,60.0,
77,77,90,10,8,168,3,,,,,,,,,,,session,2159.7532066998538,126.0,2.0,72.0,0.4,5,0.2995488999877125,0.46725260000675917,6,0.3413673001341522,0.5414226001594216,6,0.554426999995485,0.72119259997271,,,48.0,48.0,52421,60.0,
-77,-77,-45,10,9,169,12,,,,,,,,,,,session,2167.142996299779,150.0,2.0,72.0,0.4,3,0.4551780999172479,0.6213601999916136,1,2.4763396999333054,2.6096389999147505,6,0.40341809997335076,0.536896999925375,,,63.0,51.0,52421,60.0,
77,-77,90,10,10,170,11,,,,,,,,,,,session,2176.7438922999427,162.0,2.0,72.0,0.4,4,0.7956464998424053,1.0059050999116153,6,0.3708456000313163,0.5644086999818683,6,3.85113859991543,4.035034699831158,,,54.0,48.0,52421,60.0,
77,77,-45,10,11,171,0,,,,,,,,,,,session,2188.2251873998903,180.0,2.0,72.0,0.017165575532838914,2,1.0424144000280648,1.2096555000171065,0,0.021574600134044886,0.15844080015085638,0,0.011953799985349178,0.01386230019852519,,,51.0,63.0,52421,60.0,
-77,77,90,10,12,172,7,,,,,,,,,,,session,2195.951511199819,126.0,2.0,72.0,0.4,2,0.4006375998724252,0.5686975000426173,6,0.8887396999634802,1.0888752001337707,6,2.1791187999770045,2.3581395999062806,,,48.0,72.0,52421,60.0,
77,77,0,10,13,173,1,,,,,,,,,,,session,2205.5204224998597,174.0,2.0,72.0,0.017165575532838914,2,1.0060765999369323,1.1390201998874545,0,0.012515899958088994,0.2051526999566704,0,0.011961099924519658,0.013870799914002419,,,69.0,48.0,52421,60.0,
77,-77,-45,10,14,174,8,,,,,,,,,,,session,2213.230850899825,156.0,2.0,72.0,0.017165575532838914,2,2.5927488999441266,2.7086553999688476,0,0.3900009000208229,0.5075556000228971,0,0.011007399996742606,0.012942699948325753,,,54.0,66.0,52421,60.0,
-77,-77,0,10,15,175,13,,,,,,,,,,,session,2222.507402199786,168.0,2.0,72.0,0.017165575532838914,2,0.6265283999964595,0.7626424001064152,0,0.44852579990401864,0.6018584000412375,0,0.010949800023809075,0.012710200157016516,,,54.0,66.0,52421,60.0,
77,77,-45,11,0,176,0,,,,,,,,,,,session,2230.4132725999225,132.0,2.0,72.0,0.017165575532838914,2,0.6671021000947803,0.7666019001044333,0,0.35306439991109073,0.5030827999580652,0,0.011038700118660927,0.01295540016144514,,,57.0,72.0,52421,60.0,
77,-77,-45,11,1,177,8,,,,,,,,,,,session,2237.5007534998003,150.0,2.0,72.0,0.017165575532838914,2,0.9517153999768198,1.0547021999955177,0,0.4387950000818819,0.5555996999610215,0,0.011403199983760715,0.013298100093379617,,,66.0,54.0,52421,60.0,
-77,-77,90,11,2,178,15,,,,,,,,,,,session,2245.070047999965,132.0,2.0,72.0,0.017165575532838914,2,0.6262779999524355,0.7830262000206858,7,1.3193398998118937,1.502733499975875,1,0.28526299982331693,0.43529940000735223,,,54.0,48.0,52421,60.0,
-77,-77,0,11,3,179,13,,,,,,,,,,,session,2253.3049463999923,132.0,2.0,72.0,0.4,3,0.7729036998935044,0.9566903999075294,0,0.7682213999796659,1.002482800045982,6,1.7889021001756191,1.9389601000584662,,,66.0,60.0,52421,60.0,
-77,-77,0,11,3,179,13,,,materials/instructions\12_break.png,2262.968359499937,2301.1547553997952,0,38.0508131000679,38.18435039999895,0.010323500027880073,38.19222530000843,,,,,,,,,,,,,,,,,,,,52421,60.0,
-77,77,45,11,4,180,6,,,,,,,,,,,session,2301.17114589992,150.0,2.0,72.0,0.4,2,0.4265990999992937,0.5768991999793798,7,1.0389340000692755,1.2068721000105143,6,1.2166472000535578,1.398895600112155,,,69.0,60.0,52421,60.0,
77,77,90,11,5,181,3,,,,,,,,,,,session,2310.447437199997,156.0,2.0,72.0,0.4,5,0.3020800999365747,0.4540597000159323,6,0.5640585001092404,0.720062600215897,6,0.6022669998928905,0.7381380000151694,,,57.0,69.0,52421,60.0,
77,77,0,11,6,182,1,,,,,,,,,,,session,2318.6254986999556,150.0,2.0,72.0,0.017165575532838914,2,1.1501497998833656,1.2845438998192549,0,0.3521261001005769,0.5014186000917107,0,0.011955900117754936,0.013893100200220942,,,48.0,69.0,52421,60.0,
77,77,45,11,7,183,2,,,,,,,,,,,session,2326.336267699953,156.0,2.0,72.0,0.017165575532838914,2,0.8052160001825541,0.9219035001005977,0,0.5245924000628293,0.6758173999842256,0,0.011024799896404147,0.012953100027516484,,,60.0,54.0,52421,60.0,
77,-77,0,11,8,184,9,,,,,,,,,,,session,2333.8933070998173,132.0,2.0,72.0,0.4,4,0.011067100102081895,0.012950300006195903,0,0.5687415997963399,0.7384408998768777,6,0.011359600117430091,0.01328280009329319,,,48.0,51.0,52421,60.0,
77,-77,90,11,9,185,11,,,,,,,,,,,session,2340.285953299841,132.0,2.0,72.0,0.4,4,0.23165709991008043,0.3815261998679489,6,0.011438500136137009,0.013306000037118793,6,1.5236135001759976,1.6734505000058562,,,72.0,60.0,52421,60.0,
-77,-77,-45,11,10,186,12,,,,,,,,,,,session,2348.2088941999245,168.0,2.0,72.0,0.017165575532838914,2,0.8223572000861168,0.9724399999249727,0,0.4925859000068158,0.6782115001697093,0,0.011807800037786365,0.0139703000895679,,,60.0,54.0,52421,60.0,
-77,77,-45,11,11,187,4,,,,,,,,,,,session,2356.007750299992,144.0,2.0,72.0,0.017165575532838914,2,0.8428666000254452,0.972835399908945,0,0.3178213001228869,0.44802910019643605,0,0.011190499877557158,0.013083199970424175,,,69.0,51.0,52421,60.0,
77,-77,45,11,12,188,10,,,,,,,,,,,session,2363.6656209998764,138.0,2.0,72.0,0.4,4,0.2348954000044614,0.38494209991768,7,0.3739187999162823,0.5397244000341743,7,0.10837380005978048,0.2722004000097513,,,66.0,66.0,52421,60.0,
-77,77,0,11,13,189,5,,,,,,,,,,,session,2370.8086914999876,180.0,2.0,72.0,0.017165575532838914,2,4.790272699901834,4.957367399940267,0,0.986361299874261,1.1652179998345673,0,0.011459700064733624,0.013426499906927347,,,60.0,51.0,52421,60.0,
-77,-77,45,11,14,190,14,,,,,,,,,,,session,2383.2714117998257,168.0,2.0,72.0,0.017165575532838914,2,1.1932101999409497,1.324851999990642,0,0.3704923000186682,0.5529243999626487,0,0.012136700097471476,0.014033399987965822,,,57.0,72.0,52421,60.0,
-77,77,90,11,15,191,7,,,,,,,,,,,session,2391.554589099949,156.0,2.0,72.0,0.017165575532838914,2,0.9694154998287559,1.119505199836567,0,0.5596100999973714,0.674382199998945,0,0.011745400028303266,0.01370070013217628,,,48.0,48.0,52421,60.0,
-77,77,90,12,0,192,7,,,,,,,,,,,session,2399.00646449998,168.0,2.0,72.0,0.017165575532838914,2,0.7884295000694692,0.8930023000575602,0,0.30254549998790026,0.4359812999609858,0,0.011125899851322174,0.013005899963900447,,,54.0,63.0,52421,60.0,
77,77,90,12,1,193,3,,,,,,,,,,,session,2406.817592999898,132.0,2.0,72.0,0.017165575532838914,5,0.9991301998961717,1.1636008999776095,6,0.3840012000873685,0.5527431999798864,1,0.011046599829569459,0.01318579982034862,,,54.0,69.0,52421,60.0,
77,77,0,12,2,194,1,,,,,,,,,,,session,2414.2526924998965,156.0,2.0,72.0,0.017165575532838914,2,0.6549467998556793,0.7883827998302877,0,0.32360789994709194,0.6240216000005603,0,0.011024600127711892,0.012907000025734305,,,51.0,63.0,52421,60.0,
77,-77,45,12,3,195,10,,,,,,,,,,,session,2421.6109942998737,174.0,2.0,72.0,0.017165575532838914,2,0.6957969998475164,0.8449552999809384,0,1.3858524998649955,1.554889400023967,0,0.9145702000241727,1.1317747000139207,,,48.0,69.0,52421,60.0,
-77,77,0,12,4,196,5,,,,,,,,,,,session,2431.974471999798,162.0,2.0,72.0,0.017165575532838914,2,0.49629519996233284,0.6642127998638898,0,0.3407664999831468,0.491599699947983,0,0.011618399992585182,0.013552899938076735,,,60.0,66.0,52421,60.0,
-77,77,45,12,5,197,6,,,,,,,,,,,session,2439.386819299776,132.0,2.0,72.0,0.017165575532838914,2,0.7632748999167234,0.8799693000037223,0,0.38658090005628765,0.5201336001046002,0,0.012019899906590581,0.013991399900987744,,,69.0,72.0,52421,60.0,
77,77,45,12,6,198,2,,,,,,,,,,,session,2446.8256576999556,150.0,2.0,72.0,0.017165575532838914,2,0.5459477999247611,0.7147393999621272,0,0.5392382999416441,0.6575048000086099,0,0.01147329993546009,0.013350499793887138,,,48.0,66.0,52421,60.0,
77,-77,90,12,7,199,11,,,,,,,,,,,session,2454.583846199792,138.0,2.0,72.0,0.017165575532838914,4,0.3346377999987453,0.5180816000793129,6,0.45328879985027015,0.6033472998533398,6,0.011335300048813224,0.013343399856239557,,,63.0,63.0,52421,60.0,
77,-77,90,12,7,199,11,,,materials/instructions\12_break.png,2461.583511599805,2483.6252528999466,0,21.889571600127965,22.039582500001416,0.01269409991800785,22.04751869989559,,,,,,,,,,,,,,,,,,,,52421,60.0,
-77,-77,0,12,8,200,13,,,,,,,,,,,session,2483.6405121998396,180.0,2.0,72.0,0.017165575532838914,2,0.9308736000675708,1.0496658000629395,0,0.32235779985785484,0.4557621998246759,0,0.011185799958184361,0.013082699850201607,,,48.0,57.0,52421,60.0,
-77,77,-45,12,9,201,4,,,,,,,,,,,session,2491.3668342998717,138.0,2.0,72.0,0.017165575532838914,2,0.6640175001230091,0.7817661000881344,0,0.011466099880635738,0.01338749984279275,0,0.011046300176531076,0.012935000006109476,,,72.0,72.0,52421,60.0,
-77,-77,45,12,10,202,14,,,,,,,,,,,session,2498.8178680997808,132.0,2.0,72.0,0.017165575532838914,3,0.8853815000038594,1.0188124999403954,7,0.6927096000872552,0.8583694000262767,1,0.011015600059181452,0.03610560018569231,,,66.0,66.0,52421,60.0,
-77,-77,90,12,11,203,15,,,,,,,,,,,session,2506.57723039994,162.0,2.0,72.0,0.017165575532838914,2,0.8685565998312086,0.9854939000215381,0,0.012569299899041653,0.014456799952313304,0,0.011231499956920743,0.01316679990850389,,,66.0,48.0,52421,60.0,
77,-77,0,12,12,204,9,,,,,,,,,,,session,2513.656645399984,168.0,2.0,72.0,0.017165575532838914,2,1.5839270998258144,1.683921999996528,0,0.42025840003043413,0.6040603998117149,0,0.011134499916806817,0.013035000069066882,,,60.0,63.0,52421,60.0,
77,-77,-45,12,13,205,8,,,,,,,,,,,session,2522.639544399921,168.0,2.0,72.0,0.4,4,0.011186399962753057,0.06732790009118617,1,1.9238312998786569,2.07296480005607,6,0.4033439001068473,0.5691135001834482,,,54.0,54.0,52421,60.0,
-77,-77,-45,12,14,206,12,,,,,,,,,,,session,2531.399930199841,156.0,2.0,72.0,0.017165575532838914,2,1.2985243999864906,1.4316422000993043,0,0.17823589988984168,0.32238960009999573,0,0.010951699921861291,0.012849099934101105,,,57.0,66.0,52421,60.0,
77,77,-45,12,15,207,0,,,,,,,,,,,session,2539.439448399935,174.0,2.0,72.0,0.017165575532838914,2,0.7556775000412017,0.9059379000682384,0,0.33525330014526844,0.46865379996597767,0,0.01103830011561513,0.012968200026080012,,,63.0,51.0,52421,60.0,
-77,-77,0,13,0,208,13,,,,,,,,,,,session,2547.0670144998003,132.0,2.0,72.0,0.017165575532838914,2,0.8065231000073254,0.9399331000167876,0,0.01144339982420206,0.013316299999132752,0,0.011039800010621548,0.013066699961200356,,,54.0,54.0,52421,60.0,
77,-77,0,13,1,209,9,,,,,,,,,,,session,2553.4751809998415,150.0,2.0,72.0,0.017165575532838914,2,0.6913826998788863,0.7963006999343634,0,0.6483979001641273,0.8026644000783563,0,0.011140899965539575,0.012883999850600958,,,54.0,66.0,52421,60.0,
-77,77,90,13,2,210,7,,,,,,,,,,,session,2561.1210819999687,174.0,2.0,72.0,0.017165575532838914,2,0.6507270999718457,0.7675014999695122,0,0.47973249992355704,0.6465000999160111,0,0.01154330000281334,0.013444600161164999,,,51.0,66.0,52421,60.0,
-77,-77,45,13,3,211,14,,,,,,,,,,,session,2568.852269799914,138.0,2.0,72.0,0.4,3,0.4185900001320988,0.5861142999492586,1,2.1578595000319183,2.241276599932462,6,1.8378499997779727,1.9891750998795033,,,57.0,51.0,52421,60.0,
-77,77,-45,13,4,212,4,,,,,,,,,,,session,2579.217917999951,156.0,2.0,72.0,0.4,2,0.848831000039354,1.018318499904126,1,1.0749862999655306,1.1916252998635173,6,0.011069299886003137,0.01298630004748702,,,72.0,72.0,52421,60.0,
77,-77,45,13,5,213,10,,,,,,,,,,,session,2588.3351819999516,132.0,2.0,72.0,0.017165575532838914,2,1.2083268000278622,1.373230200028047,0,0.1075851998757571,0.29239879990927875,0,0.011213600169867277,0.013026000000536442,,,54.0,63.0,52421,60.0,
77,-77,90,13,6,214,11,,,,,,,,,,,session,2595.5875249998644,150.0,2.0,72.0,0.017165575532838914,2,0.8236563000828028,0.990438099950552,0,0.3173044000286609,0.42841369984671474,0,0.011155999964103103,0.01305439998395741,,,69.0,69.0,52421,60.0,
-77,77,0,13,7,215,5,,,,,,,,,,,session,2603.303624899825,126.0,2.0,72.0,0.017165575532838914,2,0.6480864998884499,0.7812773999758065,0,0.322880299994722,0.4735602999571711,0,0.011067999992519617,0.013062699930742383,,,57.0,69.0,52421,60.0,
77,-77,-45,13,8,216,8,,,,,,,,,,,session,2610.3187702998985,132.0,2.0,72.0,0.017165575532838914,2,0.7864516000263393,0.9198465999215841,0,0.3062195999082178,0.4388166000135243,0,0.011290800059214234,0.01319670001976192,,,51.0,60.0,52421,60.0,
-77,77,45,13,9,217,6,,,,,,,,,,,session,2617.193012899952,156.0,2.0,72.0,0.017165575532838914,2,0.8584655001759529,0.9590312000364065,0,6.034738099901006,6.167937600053847,0,0.41822950006462634,0.6192256999202073,,,69.0,69.0,52421,60.0,
77,77,-45,13,10,218,0,,,,,,,,,,,session,2631.277926699957,126.0,2.0,72.0,0.017165575532838914,2,0.8030946999788284,0.9366492000408471,0,0.1536885998211801,0.2861798999365419,0,0.011392900021746755,0.013338400050997734,,,66.0,57.0,52421,60.0,
77,77,45,13,11,219,2,,,,,,,,,,,session,2638.1042633999605,180.0,2.0,72.0,0.017165575532838914,2,0.718497300054878,0.8186381000559777,0,0.011882799910381436,0.1017348999157548,0,0.011091100051999092,0.012967800023034215,,,63.0,57.0,52421,60.0,
77,77,45,13,11,219,2,,,materials/instructions\12_break.png,2645.5074220998213,2745.8286289998796,0,100.1996247000061,100.31895349989645,0.012519400101155043,100.3241375000216,,,,,,,,,,,,,,,,,,,,52421,60.0,
-77,-77,90,13,12,220,15,,,,,,,,,,,session,2745.8412929999176,132.0,2.0,72.0,0.017165575532838914,2,0.9817663000430912,1.1144795999862254,0,0.3240910000167787,0.4233172000385821,0,0.011047399835661054,0.012981100007891655,,,72.0,57.0,52421,60.0,
77,77,0,13,13,221,1,,,,,,,,,,,session,2753.1948374998756,156.0,2.0,72.0,0.017165575532838914,2,0.6485312001314014,0.7819777000695467,0,2.5698392998892814,2.7042373998556286,0,0.011221399996429682,0.013133300002664328,,,51.0,48.0,52421,60.0,
77,77,90,13,14,222,3,,,,,,,,,,,session,2762.7913133997936,138.0,2.0,72.0,0.017165575532838914,2,0.6501227000262588,0.7678831999655813,0,0.5564446998760104,0.7403520999941975,0,0.011264000087976456,0.013339800061658025,,,66.0,66.0,52421,60.0,
-77,-77,-45,13,15,223,12,,,,,,,,,,,session,2770.2560408997815,144.0,2.0,72.0,0.4,3,0.06985899992287159,0.25462720007635653,1,0.7045119998510927,0.804576399968937,6,3.162094500148669,3.3120903000235558,,,60.0,57.0,52421,60.0,
77,77,45,14,0,224,2,,,,,,,,,,,session,2780.4131598998792,126.0,2.0,72.0,0.4,5,0.35276599996723235,0.4871072000823915,1,1.6363161001354456,1.8033645001705736,1,0.6520078999456018,0.8022183999419212,,,60.0,60.0,52421,60.0,
-77,-77,90,14,1,225,15,,,,,,,,,,,session,2789.1288558999076,126.0,2.0,72.0,0.4,5,1.1437546000815928,1.3455120001453906,6,1.4409694999922067,1.6740881998557597,1,1.2211184001062065,1.3210972999222577,,,60.0,72.0,52421,60.0,
-77,77,45,14,2,226,6,,,,,,,,,,,session,2799.204572199844,138.0,2.0,72.0,0.4,2,0.8294913999270648,0.9960657998453826,6,1.0533527000807226,1.1367065999656916,1,3.2193647001404315,3.321912500075996,,,60.0,51.0,52421,60.0,
-77,77,-45,14,3,227,4,,,,,,,,,,,session,2810.8000448998064,180.0,2.0,72.0,0.017165575532838914,2,0.6686228001490235,0.7862613000907004,0,0.35705799981951714,0.5391728999093175,0,0.011111099971458316,0.01302479999139905,,,48.0,69.0,52421,60.0,
77,77,90,14,4,228,3,,,,,,,,,,,session,2818.5626455999445,162.0,2.0,72.0,0.017165575532838914,2,2.198374800151214,2.377738800132647,0,0.304000600008294,0.40728350006975234,0,0.012078099884092808,0.014006600016728044,,,60.0,60.0,52421,60.0,
77,-77,45,14,5,229,10,,,,,,,,,,,session,2827.520966499811,126.0,2.0,72.0,0.017165575532838914,2,0.6367872999981046,0.7711449000053108,0,1.1716418999712914,1.3049959000200033,0,0.01202749996446073,0.01393739995546639,,,54.0,54.0,52421,60.0,
-77,-77,45,14,6,230,14,,,,,,,,,,,session,2834.9591921998654,156.0,2.0,72.0,0.017165575532838914,2,0.6546831999439746,0.7708827999886125,0,0.7332440000027418,0.868514500092715,0,0.011009900132194161,0.01295830006711185,,,69.0,57.0,52421,60.0,
77,-77,0,14,7,231,9,,,,,,,,,,,session,2842.763454699889,132.0,2.0,72.0,0.017165575532838914,2,1.1583799000363797,1.2781298998743296,0,0.3554141998756677,0.45608849986456335,0,0.01137720001861453,0.013310899958014488,,,57.0,51.0,52421,60.0,
-77,-77,0,14,8,232,13,,,,,,,,,,,session,2850.554999699816,150.0,2.0,72.0,0.017165575532838914,2,0.7178342998959124,0.8520102999173105,0,0.4509596999268979,0.5844429999124259,0,0.011077000061050057,0.013123100157827139,,,60.0,63.0,52421,60.0,
77,77,0,14,9,233,1,,,,,,,,,,,session,2858.006373999873,156.0,2.0,72.0,0.4,5,0.9989893999882042,1.1657887999899685,0,0.30465970002114773,0.5366267000790685,6,7.271062399959192,7.421037300024182,,,66.0,48.0,52421,60.0,
-77,-77,-45,14,10,234,12,,,,,,,,,,,session,2873.0603645998053,162.0,2.0,72.0,0.4,3,0.39612619997933507,0.5296230998355895,1,1.5228774000424892,1.6707545998506248,6,0.8917249999940395,1.041717799846083,,,63.0,54.0,52421,60.0,
77,77,-45,14,11,235,0,,,,,,,,,,,session,2882.398598599946,132.0,2.0,72.0,0.017165575532838914,2,1.8779428999405354,1.9950918999966234,0,0.3616864997893572,0.4950107999611646,0,0.011376200011000037,0.013432800071313977,,,63.0,54.0,52421,60.0,
77,-77,-45,14,12,236,8,,,,,,,,,,,session,2890.5231598999817,150.0,2.0,72.0,0.017165575532838914,2,0.7847223998978734,0.9346972000785172,0,0.4395961998961866,0.5730621998663992,0,0.012103999964892864,0.013953799847513437,,,51.0,66.0,52421,60.0,
-77,77,0,14,13,237,5,,,,,,,,,,,session,2898.036646099994,138.0,2.0,72.0,0.017165575532838914,2,0.8881127999629825,1.0049398001283407,0,0.011538499966263771,0.013460800051689148,0,0.010967799928039312,0.01290589990094304,,,72.0,63.0,52421,60.0,
-77,77,90,14,14,238,7,,,,,,,,,,,session,2905.072794099804,126.0,2.0,72.0,0.017165575532838914,2,0.9547222999390215,1.0726179999765009,0,0.6381475001107901,0.7704954000655562,0,0.010999299818649888,0.013140499824658036,,,48.0,51.0,52421,60.0,
77,-77,90,14,15,239,11,,,,,,,,,,,session,2912.1234695999883,156.0,2.0,72.0,0.017165575532838914,4,0.24894189997576177,0.46568200015462935,6,0.4522700998932123,0.6364970998838544,1,0.33486939989961684,0.4358276999555528,,,54.0,54.0,52421,60.0,
77,-77,90,14,15,239,11,,,materials/instructions\12_break.png,2919.790746699786,2938.526796999853,1,18.616721200058237,18.733755599940196,0.021949299843981862,18.740919000003487,,,,,,,,,,,,,,,,,,,,52421,60.0,
77,77,0,15,0,240,1,,,,,,,,,,,session,2938.542175399838,168.0,2.0,72.0,0.017165575532838914,2,0.40739920013584197,0.5573712000623345,0,0.18659549998119473,0.3042724998667836,0,0.011120600160211325,0.013074600137770176,,,51.0,72.0,52421,60.0,
-77,-77,45,15,1,241,14,,,,,,,,,,,session,2945.7314511998557,162.0,2.0,72.0,0.017165575532838914,2,0.8527344998437911,0.9703034998383373,0,0.7874719998799264,0.9056283999234438,0,0.012069399934262037,0.014023300027474761,,,57.0,60.0,52421,60.0,
77,-77,0,15,2,242,9,,,,,,,,,,,session,2953.713623999851,132.0,2.0,72.0,0.017165575532838914,2,0.6950004999525845,0.825224099913612,0,0.36675540008582175,0.5343911000527442,0,0.011084700003266335,0.013009699992835522,,,51.0,72.0,52421,60.0,
77,-77,90,15,3,243,11,,,,,,,,,,,session,2961.3913788998034,150.0,2.0,72.0,0.017165575532838914,2,0.6706980001181364,0.8207135000266135,0,0.5547315999865532,0.6879059998318553,0,0.012197099858894944,0.014054100029170513,,,54.0,54.0,52421,60.0,
-77,-77,-45,15,4,244,12,,,,,,,,,,,session,2968.65449919994,138.0,2.0,72.0,0.017165575532838914,2,3.3400743000674993,3.474271400133148,0,0.5700209999922663,0.7200396000407636,0,0.011850900016725063,0.013714700005948544,,,63.0,54.0,52421,60.0,
77,77,45,15,5,245,2,,,,,,,,,,,session,2978.5438365999144,156.0,2.0,72.0,0.017165575532838914,5,0.2859706000890583,0.5192871000617743,7,1.0839203998912126,1.234138899948448,1,0.011973400134593248,0.013878100086003542,,,66.0,63.0,52421,60.0,
77,77,-45,15,6,246,0,,,,,,,,,,,session,2986.690546899801,156.0,2.0,72.0,0.017165575532838914,2,0.4040546999312937,0.504327500006184,0,0.507050700020045,0.6738175000064075,0,0.011075700167566538,0.01303980010561645,,,51.0,66.0,52421,60.0,
-77,-77,90,15,7,247,15,,,,,,,,,,,session,2993.8741673999466,168.0,2.0,72.0,0.4,3,0.33811930008232594,0.48823409993201494,6,0.38075560005381703,0.5362091001588851,6,0.29855949990451336,0.43007480003871024,,,48.0,69.0,52421,60.0,
-77,-77,0,15,8,248,13,,,,,,,,,,,session,3001.530994999921,150.0,2.0,72.0,0.017165575532838914,2,2.283286599908024,2.4336157999932766,0,7.772856600116938,7.891461600083858,0,0.9977344998624176,1.1134349000640213,,,63.0,66.0,52421,60.0,
77,77,90,15,9,249,3,,,,,,,,,,,session,3019.08643679996,138.0,2.0,72.0,0.017165575532838914,5,1.3121431998442858,1.4923060999717563,6,1.507317499956116,1.6402879999950528,1,1.99970359983854,2.1331469998694956,,,60.0,54.0,52421,60.0,
-77,77,45,15,10,250,6,,,,,,,,,,,session,3030.531722099986,156.0,2.0,72.0,0.4,2,1.1424519000574946,1.2257991000078619,7,0.8871599000412971,1.0538029000163078,1,2.790686999913305,2.890736899804324,,,63.0,57.0,52421,60.0,
-77,77,0,15,11,251,5,,,,,,,,,,,session,3041.7537160997745,180.0,2.0,72.0,0.017165575532838914,5,1.1937001999467611,1.3436904998961836,0,8.425915099913254,8.559047299902886,0,0.011133700143545866,0.013040299993008375,,,48.0,51.0,52421,60.0,
77,-77,45,15,12,252,10,,,,,,,,,,,session,3058.393570699962,132.0,2.0,72.0,0.017165575532838914,2,1.0889445999637246,1.1901131998747587,0,0.8908041999675333,1.0239534999709576,0,0.6859310998115689,0.835661199875176,,,48.0,66.0,52421,60.0,
-77,77,-45,15,13,253,4,,,,,,,,,,,session,3066.998685799772,174.0,2.0,72.0,0.017165575532838914,2,0.769806900061667,0.8692795000970364,0,0.4687849001493305,0.6193721999879926,0,0.011252199998125434,0.01311199995689094,,,48.0,72.0,52421,60.0,
77,-77,-45,15,14,254,8,,,,,,,,,,,session,3075.0391531998757,150.0,2.0,72.0,0.017165575532838914,2,0.7400486001279205,0.8562082999851555,0,0.5736608998849988,0.6737376998644322,0,0.011177700012922287,0.013146399985998869,,,66.0,51.0,52421,60.0,
-77,77,90,15,15,255,7,,,,,,,,,,,session,3082.478666199837,138.0,2.0,72.0,0.017165575532838914,2,0.7215839999262244,0.8382554000709206,0,0.32602649996988475,0.39318350004032254,0,0.011009299894794822,0.012923500034958124,,,57.0,66.0,52421,60.0,
77,-77,90,16,0,256,11,,,,,,,,,,,session,3089.5608406998217,150.0,2.0,72.0,0.4,4,0.2692559000570327,0.45073110004886985,6,0.3860036002006382,0.5197860000189394,6,4.2699452000670135,4.4379012999124825,,,57.0,69.0,52421,60.0,
-77,-77,0,16,1,257,13,,,,,,,,,,,session,3101.1169380999636,174.0,2.0,72.0,0.017165575532838914,2,1.199252000078559,1.3327568999957293,0,0.3057904001325369,0.42023020004853606,0,0.011094900080934167,0.013001099927350879,,,51.0,63.0,52421,60.0,
-77,77,45,16,2,258,6,,,,,,,,,,,session,3109.129425199935,132.0,2.0,72.0,0.017165575532838914,2,0.596932000014931,0.7306165001355112,0,0.23591489996761084,0.4192639999091625,0,0.011142099974676967,0.013025599997490644,,,48.0,60.0,52421,60.0,
-77,77,0,16,3,259,5,,,,,,,,,,,session,3116.3255072999746,150.0,2.0,72.0,0.4,2,0.33873289986513555,0.5214189998805523,0,0.655843700049445,0.8393848000559956,6,0.3231705999933183,0.5066674000117928,,,66.0,51.0,52421,60.0,
-77,77,0,16,3,259,5,,,materials/instructions\12_break.png,3124.1094400999136,3126.5657184999436,0,2.2703532001469284,2.4541033001150936,0.02524190000258386,2.461981999920681,,,,,,,,,,,,,,,,,,,,52421,60.0,
77,-77,-45,16,4,260,8,,,,,,,,,,,session,3126.5811266999226,174.0,2.0,72.0,0.4,4,0.43991459999233484,0.6233994998037815,1,1.3695447999052703,1.482058399822563,0,2.5011652999091893,2.651203299872577,,,69.0,66.0,52421,60.0,
-77,-77,90,16,5,261,15,,,,,,,,,,,session,3137.9667016998865,138.0,2.0,72.0,0.017165575532838914,2,2.0343295999336988,2.1343410999979824,0,0.2577504999935627,0.3419550999533385,0,0.01122729992493987,0.013148300116881728,,,66.0,69.0,52421,60.0,
-77,77,-45,16,6,262,4,,,,,,,,,,,session,3146.4785835999064,180.0,2.0,72.0,0.017165575532838914,2,0.9858423001132905,1.1021871999837458,0,0.0120556999463588,0.08672979986295104,0,0.012193199945613742,0.014091499848291278,,,57.0,69.0,52421,60.0,
77,77,-45,16,7,263,0,,,,,,,,,,,session,3154.2502787997946,150.0,2.0,72.0,0.4,5,0.2647305999416858,0.44680440006777644,1,0.8917393998708576,1.009303799830377,6,1.6491747999098152,1.799135300097987,,,72.0,66.0,52421,60.0,
77,-77,45,16,8,264,10,,,,,,,,,,,session,3164.231694899965,174.0,2.0,72.0,0.4,4,0.4552720000501722,0.6052504999097437,7,1.3081513999495655,1.441553299780935,6,1.1377485999837518,1.270783199928701,,,72.0,60.0,52421,60.0,
77,77,45,16,9,265,2,,,,,,,,,,,session,3174.088145799935,174.0,2.0,72.0,0.017165575532838914,4,1.0340448999777436,1.183283100137487,0,0.3536916999146342,0.5039027999155223,0,0.010871900012716651,0.012619399931281805,,,69.0,57.0,52421,60.0,
-77,77,90,16,10,266,7,,,,,,,,,,,session,3182.8946883999743,162.0,2.0,72.0,0.017165575532838914,3,1.1704317000694573,1.3371081000659615,0,0.011422900017350912,0.013375499984249473,0,2.071969199925661,0.011158099863678217,,,63.0,48.0,52421,60.0,
77,77,0,16,11,267,1,,,,,,,,,,,session,3192.322698699776,126.0,2.0,72.0,0.017165575532838914,2,1.319177000084892,1.435598700074479,0,0.4030905000399798,0.4841444999910891,0,0.01100209983997047,0.012974499957635999,,,51.0,66.0,52421,60.0,
77,-77,0,16,12,268,9,,,,,,,,,,,session,3199.7641205999535,174.0,2.0,72.0,0.017165575532838914,2,0.7196939000859857,0.8527510000858456,0,0.2840499999001622,0.652405499946326,0,0.9206128001678735,1.053951500216499,,,69.0,66.0,52421,60.0,
-77,-77,45,16,13,269,14,,,,,,,,,,,session,3209.0329203999136,132.0,2.0,72.0,0.017165575532838914,2,0.7373347000684589,0.870849700178951,0,0.40753709990531206,0.8244950999505818,0,0.011088599916547537,0.012990799965336919,,,57.0,69.0,52421,60.0,
77,77,90,16,14,270,3,,,,,,,,,,,session,3216.479256399907,180.0,2.0,72.0,0.017165575532838914,2,0.8932779000606388,1.0478122001513839,0,0.35477209999226034,0.48837479995563626,0,0.011049800086766481,0.01281170011498034,,,54.0,48.0,52421,60.0,
-77,-77,-45,16,15,271,12,,,,,,,,,,,session,3224.44195989985,144.0,2.0,72.0,0.017165575532838914,2,0.6972013998311013,0.7807273999787867,0,1.7358549998607486,1.9039194998331368,0,0.011172899976372719,0.012990099843591452,,,60.0,63.0,52421,60.0,
77,77,0,17,0,272,1,,,,,,,,,,,session,3233.0431457997765,180.0,2.0,72.0,0.017165575532838914,2,0.41412769979797304,0.5318573999684304,0,0.011901299934834242,0.013744800118729472,0,0.7207492999732494,0.011063399957492948,,,72.0,54.0,52421,60.0,
-77,-77,-45,17,1,273,12,,,,,,,,,,,session,3240.861358199967,174.0,2.0,72.0,0.017165575532838914,2,0.6441339000593871,0.7610847998876125,0,0.29061969998292625,0.40688240015879273,0,0.010883199982345104,0.012797199888154864,,,57.0,69.0,52421,60.0,
-77,-77,45,17,2,274,14,,,,,,,,,,,session,3249.1175127997994,138.0,2.0,72.0,0.017165575532838914,2,0.6186081999912858,0.7522511000279337,0,0.3360798000358045,0.45286089996807277,0,0.011232799850404263,0.013147399993613362,,,60.0,66.0,52421,60.0,
77,-77,0,17,3,275,9,,,,,,,,,,,session,3256.180369199952,180.0,2.0,72.0,0.017165575532838914,2,0.3457447001710534,0.4457440001424402,0,0.011649100109934807,0.01361300004646182,0,0.011110899969935417,0.013046599924564362,,,66.0,48.0,52421,60.0,
77,-77,90,17,4,276,11,,,,,,,,,,,session,3263.0006940998137,138.0,2.0,72.0,0.4,4,0.29646819992922246,0.47509679989889264,6,0.509010799927637,0.641330000013113,6,1.752405900042504,1.9191939998418093,,,48.0,54.0,52421,60.0,
-77,-77,0,17,5,277,13,,,,,,,,,,,session,3272.1669067998882,162.0,2.0,72.0,0.017165575532838914,2,1.6015347000211477,1.7198445999529213,0,0.5050765001215041,0.6717013001907617,0,0.011118000140413642,0.013033299939706922,,,63.0,63.0,52421,60.0,
-77,77,-45,17,6,278,4,,,,,,,,,,,session,3280.8139742999338,150.0,2.0,72.0,0.017165575532838914,2,0.904761099955067,1.0378902999218553,0,0.30512320017442107,0.4386761002242565,0,0.011193400016054511,0.013068299973383546,,,63.0,54.0,52421,60.0,
77,77,90,17,7,279,3,,,,,,,,,,,session,3288.211506099906,150.0,2.0,72.0,0.017165575532838914,2,0.7857663999311626,0.9189875998999923,0,0.21600930020213127,0.3489684001542628,0,0.010994599899277091,0.012883200077340007,,,69.0,54.0,52421,60.0,
77,77,90,17,7,279,3,,,materials/instructions\12_break.png,3295.578810799867,3329.338501899969,0,33.59055999992415,33.75762950000353,0.020713099977001548,33.76539640012197,,,,,,,,,,,,,,,,,,,,52421,60.0,
-77,-77,90,17,8,280,15,,,,,,,,,,,session,3329.3543164997827,168.0,2.0,72.0,0.017165575532838914,2,0.5401600000914186,0.6734706000424922,0,0.6541383001022041,0.7875516000203788,0,0.010892599821090698,0.012761999852955341,,,72.0,51.0,52421,60.0,
77,-77,45,17,9,281,10,,,,,,,,,,,session,3337.717638099799,174.0,2.0,72.0,0.4,4,0.46716089989058673,0.6179432000499219,7,1.3520008998457342,1.5365869000088423,6,0.3051420000847429,0.4707677001133561,,,72.0,63.0,52421,60.0,
77,77,-45,17,10,282,0,,,,,,,,,,,session,3346.920843999833,162.0,2.0,72.0,0.017165575532838914,2,2.1233723999466747,2.2567001001443714,0,1.3652986001688987,1.4999123001471162,0,0.6148268000688404,0.7811070000752807,,,72.0,57.0,52421,60.0,
77,-77,-45,17,11,283,8,,,,,,,,,,,session,3357.7821286998224,162.0,2.0,72.0,0.017165575532838914,2,1.116284300107509,1.199690300039947,0,0.06964710005559027,0.22047830000519753,0,0.01132039981894195,0.01327759982086718,,,60.0,54.0,52421,60.0,
-77,77,0,17,12,284,5,,,,,,,,,,,session,3365.259412799962,162.0,2.0,72.0,0.017165575532838914,2,0.585814599879086,0.7024534000083804,0,0.01148990006186068,0.013365300139412284,0,1.415866200113669,0.0110082000028342,,,69.0,57.0,52421,60.0,
-77,77,90,17,13,285,7,,,,,,,,,,,session,3373.657555299811,156.0,2.0,72.0,0.017165575532838914,2,1.0953124000225216,1.2453582000453025,0,0.011816199868917465,0.013827600050717592,0,0.011128999991342425,0.013057600008323789,,,57.0,63.0,52421,60.0,
-77,77,45,17,14,286,6,,,,,,,,,,,session,3381.7261968997773,132.0,2.0,72.0,0.017165575532838914,2,0.9010480002034456,0.9844888001680374,0,0.8738590001594275,0.9915531000588089,0,0.011102400021627545,0.012980100000277162,,,51.0,66.0,52421,60.0,
77,77,45,17,15,287,2,,,,,,,,,,,session,3389.31303249998,126.0,2.0,72.0,0.017165575532838914,2,0.7906891999300569,0.9240202999208122,0,0.2898570999968797,0.3899842998944223,0,0.012255999958142638,0.014349499950185418,,,72.0,63.0,52421,60.0,
-77,77,-45,18,0,288,4,,,,,,,,,,,session,3396.4357986999676,144.0,2.0,72.0,0.4,2,0.8977403999306262,0.9975115999113768,1,3.692593799903989,3.8094632998108864,0,0.9345156999770552,1.0679130998905748,,,54.0,69.0,52421,60.0,
-77,-77,45,18,1,289,14,,,,,,,,,,,session,3408.8339556998108,174.0,2.0,72.0,0.017165575532838914,2,1.3391040000133216,1.4579094001092017,0,0.9688627000432462,1.1023822000715882,0,0.6210684000980109,0.7892261000815779,,,54.0,72.0,52421,60.0,
77,77,-45,18,2,290,0,,,,,,,,,,,session,3418.6095697998535,144.0,2.0,72.0,0.017165575532838914,4,1.0101248000282794,1.1923915001098067,0,0.5032796999439597,0.6854210998862982,0,0.8829177999868989,1.0161902999971062,,,51.0,63.0,52421,60.0,
77,77,0,18,3,291,1,,,,,,,,,,,session,3427.982693699887,126.0,2.0,72.0,0.017165575532838914,2,0.9560344000346959,1.054125899914652,0,0.5731250999961048,0.7068813999649137,0,0.6033849001396447,0.7535165001172572,,,48.0,63.0,52421,60.0,
77,77,90,18,4,292,3,,,,,,,,,,,session,3435.888664299855,144.0,2.0,72.0,0.017165575532838914,2,0.8673946000635624,0.9841740000993013,0,0.3159497999586165,0.42748979991301894,0,0.5878388998098671,0.7214296997990459,,,72.0,60.0,52421,60.0,
77,-77,-45,18,5,293,8,,,,,,,,,,,session,3444.086535099894,180.0,2.0,72.0,0.017165575532838914,2,0.8543366000521928,0.9870986000169069,0,0.37154540000483394,0.47165389987640083,0,0.37287720013409853,0.5061204000376165,,,54.0,51.0,52421,60.0,
77,-77,0,18,6,294,9,,,,,,,,,,,session,3452.2514408999123,132.0,2.0,72.0,0.017165575532838914,2,0.8038046001456678,0.9046853999607265,0,0.3396566000301391,0.45623039989732206,0,0.5004859999753535,0.6673165000975132,,,54.0,51.0,52421,60.0,
77,-77,45,18,7,295,10,,,,,,,,,,,session,3459.673576499801,168.0,2.0,72.0,0.017165575532838914,2,0.963626999873668,1.075585399987176,0,0.3043343999888748,0.4342896998859942,0,0.011069600004702806,0.012945800088346004,,,72.0,66.0,52421,60.0,
-77,77,90,18,8,296,7,,,,,,,,,,,session,3467.8747478998266,132.0,2.0,72.0,0.017165575532838914,2,0.7027177000418305,0.8028157001826912,0,0.3163370001129806,0.43428100016899407,0,0.011132200015708804,0.013073800131678581,,,48.0,63.0,52421,60.0,
-77,77,0,18,9,297,5,,,,,,,,,,,session,3474.6293267,162.0,2.0,72.0,0.017165575532838914,2,1.4744806000962853,1.6255634999834,0,0.6693003000691533,0.7868497001472861,0,0.011079899966716766,0.012996999779716134,,,48.0,69.0,52421,60.0,
-77,-77,-45,18,10,298,12,,,,,,,,,,,session,3483.136760199908,156.0,2.0,72.0,0.017165575532838914,2,0.8189755999483168,0.9678782999981195,0,0.4702869998291135,0.5857385999988765,0,0.010992000112310052,0.012879400048404932,,,60.0,54.0,52421,60.0,
77,77,45,18,11,299,2,,,,,,,,,,,session,3491.1931652999483,174.0,2.0,72.0,0.4,5,0.615666399942711,0.7825641001109034,7,1.0727435001172125,1.2062389000784606,0,0.8369871999602765,0.9870354000013322,,,57.0,51.0,52421,60.0,
77,77,45,18,11,299,2,,,materials/instructions\12_break.png,3500.3467852999456,3510.6331642000005,0,10.128477099817246,10.284441499970853,0.02482089982368052,10.28990069986321,,,,,,,,,,,,,,,,,,,,52421,60.0,
77,-77,90,18,12,300,11,,,,,,,,,,,session,3510.647306899773,156.0,2.0,72.0,0.017165575532838914,2,1.020540100056678,1.1196226999163628,0,0.011410099919885397,0.09000939992256463,0,0.011534699937328696,0.013483300106599927,,,66.0,48.0,52421,60.0,
-77,-77,0,18,13,301,13,,,,,,,,,,,session,3517.8292140997946,126.0,2.0,72.0,0.017165575532838914,2,0.3374958001077175,0.4535040999762714,0,0.011483899783343077,0.13716559996828437,0,0.011486100032925606,0.013392099877819419,,,54.0,72.0,52421,60.0,
-77,77,45,18,14,302,6,,,,,,,,,,,session,3524.0822087998968,132.0,2.0,72.0,0.017165575532838914,2,0.6024467998649925,0.7203617000486702,0,0.3044890998862684,0.4708660999312997,0,0.011142700212076306,0.012959200190380216,,,54.0,63.0,52421,60.0,
-77,-77,90,18,15,303,15,,,,,,,,,,,session,3530.916571199894,180.0,2.0,72.0,0.4,3,0.3212319000158459,0.5212044001091272,6,0.25512480014003813,0.3884946999605745,6,0.01193399983458221,0.013805999886244535,,,63.0,69.0,52421,60.0,
-77,77,-45,19,0,304,4,,,,,,,,,,,session,3538.658591899788,150.0,2.0,72.0,0.017165575532838914,2,1.0542005999013782,1.1710965998936445,0,0.4954204000532627,0.5946257000323385,0,0.012190100038424134,0.014071099925786257,,,57.0,54.0,52421,60.0,
77,-77,0,19,1,305,9,,,,,,,,,,,session,3546.225978199858,180.0,2.0,72.0,0.017165575532838914,2,0.7837624000385404,0.9006882000248879,0,0.2871220000088215,0.4652935001067817,0,0.010963200125843287,0.0128885000012815,,,63.0,48.0,52421,60.0,
77,77,0,19,2,306,1,,,,,,,,,,,session,3553.9133362998255,162.0,2.0,72.0,0.017165575532838914,2,0.8204844000283629,0.9364315001294017,0,0.22458910010755062,0.3079236000776291,0,0.011995400069281459,0.013903999933972955,,,60.0,60.0,52421,60.0,
77,77,-45,19,3,307,0,,,,,,,,,,,session,3561.3481749999337,132.0,2.0,72.0,0.017165575532838914,2,0.6523413001559675,0.7692200001329184,0,0.3413249000441283,0.45804699999280274,0,0.011208000127226114,0.01316679990850389,,,66.0,48.0,52421,60.0,
77,-77,45,19,4,308,10,,,,,,,,,,,session,3568.1345716998912,144.0,2.0,72.0,0.017165575532838914,2,0.738752800039947,0.855851799948141,0,0.11963630001991987,0.24429840012453496,0,0.010937399929389358,0.012673799879848957,,,66.0,57.0,52421,60.0,
-77,-77,-45,19,5,309,12,,,,,,,,,,,session,3575.145689799916,168.0,2.0,72.0,0.017165575532838914,2,0.7991693997755647,0.9494108997751027,0,0.25589590007439256,0.37125299987383187,0,0.011108200065791607,0.013135700020939112,,,72.0,51.0,52421,60.0,
-77,77,90,19,6,310,7,,,,,,,,,,,session,3582.9783928999677,156.0,2.0,72.0,0.4,2,0.31953340000472963,0.45304950000718236,6,0.275423499988392,0.42601840011775494,6,2.0548296999186277,2.2047462000045925,,,69.0,48.0,52421,60.0,
77,77,45,19,7,311,2,,,,,,,,,,,session,3592.056844999781,126.0,2.0,72.0,0.4,5,0.365229899995029,0.48350000008940697,7,0.9635602999478579,1.096974200103432,6,1.3849448000546545,1.5013892999850214,,,48.0,60.0,52421,60.0,
-77,-77,0,19,8,312,13,,,,,,,,,,,session,3600.6032438999973,138.0,2.0,72.0,0.017165575532838914,2,1.9065791999455541,2.057051399955526,1,4.707963999826461,4.808024799916893,6,1.8569738999940455,2.006476500071585,,,69.0,54.0,52421,60.0,
-77,-77,45,19,9,313,14,,,,,,,,,,,session,3615.275813099928,156.0,2.0,72.0,0.017165575532838914,3,0.5090694001410156,0.7091147999744862,1,0.801683799829334,0.9206238999031484,1,0.011093500070273876,0.012993899872526526,,,51.0,57.0,52421,60.0,
-77,77,45,19,10,314,6,,,,,,,,,,,session,3623.243555399822,162.0,2.0,72.0,0.4,2,0.8802948999218643,1.0138381000142545,1,0.4909030001144856,0.5735305000562221,1,1.0037118000909686,1.153706300072372,,,63.0,60.0,52421,60.0,
77,-77,-45,19,11,315,8,,,,,,,,,,,session,3632.1905413998757,162.0,2.0,72.0,0.4,4,0.27166239987127483,0.45430250000208616,1,0.8693921000231057,1.0026512001641095,6,1.382448900025338,1.534724400145933,,,63.0,54.0,52421,60.0,
-77,77,0,19,12,316,5,,,,,,,,,,,session,3641.2730303998105,180.0,2.0,72.0,0.017165575532838914,2,5.772483899956569,5.906570499995723,0,2.2226763998623937,2.3378929998725653,0,1.0534516999032348,1.2205115999095142,,,54.0,54.0,52421,60.0,
-77,-77,90,19,13,317,15,,,,,,,,,,,session,3657.2411967997905,156.0,2.0,72.0,0.4,3,0.30163119989447296,0.45151239982806146,6,0.331060100113973,0.46557820006273687,6,1.2624563998542726,1.4151633998844773,,,63.0,69.0,52421,60.0,
77,-77,90,19,14,318,11,,,,,,,,,,,session,3665.8385899998248,156.0,2.0,72.0,0.017165575532838914,2,1.3140412999782711,1.4474569000303745,0,0.3156019002199173,0.43317620013840497,0,0.011036500101909041,0.012934500118717551,,,51.0,54.0,52421,60.0,
77,77,90,19,15,319,3,,,,,,,,,,,session,3673.548100899905,126.0,2.0,72.0,0.017165575532838914,5,1.4352186999749392,1.5851360999513417,6,0.3554295999929309,0.4888306998182088,1,1.386202200083062,1.4862915000412613,,,66.0,66.0,52421,60.0,
77,77,90,19,15,319,3,,,materials/instructions\12_break.png,3682.865537899779,3694.5706904998515,0,11.549956899834797,11.703079300001264,0.012394499965012074,11.707973199896514,,,,,,,,,,,,,,,,,,,,52421,60.0,
77,-77,0,20,0,320,9,,,,,,,,,,,session,3694.5838864999823,138.0,2.0,72.0,0.017165575532838914,2,1.2717170999385417,1.388124599820003,0,1.5748507999815047,1.6750213000923395,0,0.011616199975833297,0.013632599962875247,,,60.0,72.0,52421,60.0,
-77,77,0,20,1,321,5,,,,,,,,,,,session,3703.6063053999096,180.0,2.0,72.0,0.017165575532838914,2,0.8086023998912424,0.9126919999253005,0,0.011693899985402822,0.01361589995212853,0,0.011532200034707785,0.013505000155419111,,,66.0,54.0,52421,60.0,
77,-77,-45,20,2,322,8,,,,,,,,,,,session,3711.545313099865,180.0,2.0,72.0,0.017165575532838914,2,0.749485099921003,0.8996655000373721,0,0.27505369996652007,0.3741168000269681,0,0.010971700074151158,0.012872300110757351,,,69.0,60.0,52421,60.0,
-77,-77,0,20,3,323,13,,,,,,,,,,,session,3719.427987499861,180.0,2.0,72.0,0.017165575532838914,2,0.7859898000024259,0.9026779998093843,0,0.4550310999620706,0.6384378001093864,0,0.011272700037807226,0.01320270006544888,,,63.0,66.0,52421,60.0,
-77,77,45,20,4,324,6,,,,,,,,,,,session,3727.570400599856,180.0,2.0,72.0,0.017165575532838914,2,0.6804281000513583,0.7971481999848038,0,0.012589599937200546,0.08737799990922213,0,0.011064100079238415,0.012912699952721596,,,57.0,66.0,52421,60.0,
-77,77,90,20,5,325,7,,,,,,,,,,,session,3735.6636335998774,132.0,2.0,72.0,0.017165575532838914,2,0.6338263999205083,0.7515527999494225,0,0.3222222998738289,0.4378368998877704,0,0.011265699984505773,0.013081999961286783,,,69.0,54.0,52421,60.0,
77,77,0,20,6,326,1,,,,,,,,,,,session,3742.5698355999775,156.0,2.0,72.0,0.017165575532838914,2,0.5724616998340935,0.7050158998463303,0,0.35706480010412633,0.4564904000144452,0,0.01124059990979731,0.0131224999204278,,,51.0,63.0,52421,60.0,
77,-77,90,20,7,327,11,,,,,,,,,,,session,3749.686058799969,174.0,2.0,72.0,0.017165575532838914,4,0.3635819999035448,0.5131800000090152,6,1.255063499789685,1.4059446000028402,1,0.011140600079670548,0.013054199982434511,,,48.0,72.0,52421,60.0,
-77,77,-45,20,8,328,4,,,,,,,,,,,session,3758.54734369996,174.0,2.0,72.0,0.017165575532838914,2,1.4178295000456274,1.5512035000137985,0,0.011538399849087,0.03980479994788766,0,0.011493199970573187,0.013363000005483627,,,66.0,57.0,52421,60.0,
77,77,-45,20,9,329,0,,,,,,,,,,,session,3766.550848499872,144.0,2.0,72.0,0.017165575532838914,4,0.8382309000007808,1.0218008998781443,0,1.1213744999840856,1.2710107997991145,0,0.48216060013510287,0.6611846999730915,,,54.0,69.0,52421,60.0,
77,77,90,20,10,330,3,,,,,,,,,,,session,3775.4010937998537,150.0,2.0,72.0,0.017165575532838914,5,1.3066381998360157,1.4564437998924404,6,0.33358879992738366,0.4991291998885572,1,0.03320030006580055,0.2014540999662131,,,48.0,51.0,52421,60.0,
77,77,45,20,11,331,2,,,,,,,,,,,session,3783.1361233999487,132.0,2.0,72.0,0.017165575532838914,2,1.2188478000462055,1.3514839000999928,0,0.38508319994434714,0.4683495999779552,0,0.01103530009277165,0.012923199916258454,,,54.0,72.0,52421,60.0,
-77,-77,90,20,12,332,15,,,,,,,,,,,session,3790.717172499979,168.0,2.0,72.0,0.017165575532838914,2,0.8461708999238908,0.9960157999303192,0,0.2681541000492871,0.396914100041613,0,0.011033599963411689,0.012919899774715304,,,48.0,57.0,52421,60.0,
-77,-77,45,20,13,333,14,,,,,,,,,,,session,3798.2126463998575,138.0,2.0,72.0,0.4,3,0.33492759987711906,0.48404680006206036,7,1.226966599933803,1.4261825000867248,6,1.0549206000287086,1.2211390000302345,,,51.0,60.0,52421,60.0,
77,-77,45,20,14,334,10,,,,,,,,,,,session,3806.940060199937,126.0,2.0,72.0,0.017165575532838914,4,1.103465999942273,1.3202349999919534,1,1.4914244001265615,1.6122908000834286,1,0.011869300156831741,0.013771899975836277,,,69.0,66.0,52421,60.0,
-77,-77,-45,20,15,335,12,,,,,,,,,,,session,3815.6707895,132.0,2.0,72.0,0.017165575532838914,3,0.21418530005030334,0.3943441000301391,1,0.31953899981454015,0.41949499980546534,1,0.011089199921116233,0.013222499983385205,,,72.0,60.0,52421,60.0,
77,77,45,21,0,336,2,,,,,,,,,,,session,3823.010584199801,144.0,2.0,72.0,0.017165575532838914,3,1.2172954000998288,1.3846626000013202,1,1.3766222998965532,1.5266414999496192,1,1.0697824000380933,1.1854268000461161,,,72.0,48.0,52421,60.0,
77,77,0,21,1,337,1,,,,,,,,,,,session,3832.9585127998143,138.0,2.0,72.0,0.017165575532838914,2,2.317395499907434,2.484821799909696,0,0.29269679985009134,0.42613319982774556,0,0.5631591000128537,0.6966256001032889,,,48.0,48.0,52421,60.0,
-77,-77,-45,21,2,338,12,,,,,,,,,,,session,3841.9522956998553,138.0,2.0,72.0,0.017165575532838914,2,1.0717861000448465,1.236839900026098,0,0.5037627001293004,0.6873977999202907,0,0.01102899992838502,0.012897399952635169,,,72.0,72.0,52421,60.0,
77,77,90,21,3,339,3,,,,,,,,,,,session,3850.067067899974,162.0,2.0,72.0,0.017165575532838914,2,0.838155800011009,0.9880226999521255,0,0.4234321000985801,0.5561993001028895,0,0.011450399877503514,0.013368099927902222,,,51.0,57.0,52421,60.0,
77,77,90,21,3,339,3,,,materials/instructions\12_break.png,3857.5856448998675,3859.443869399838,0,1.6703363999258727,1.8559493999928236,0.02553570014424622,1.8617410999722779,,,,,,,,,,,,,,,,,,,,52421,60.0,
