x,y,orientation,.thisRepN,.thisTrialN,.thisN,.thisIndex,.stepSize,.intensity,image_name,global_start_time,global_end_time,pressKey,pressRT,releaseRT,image_started,image_ended,name,globalTime,fixation_dur,stimulation_dur,post_fixation,opacity,locationResponse_pressKey,locationResponse_pressRT,locationResponse_releaseRT,orientationResponse_pressKey,orientationResponse_pressRT,orientationResponse_releaseRT,pasResponse_pressKey,pasResponse_pressRT,pasResponse_releaseRT,.response,finalOpacity,postLoc,postOri,ID,frameRate,
,,,0,-1,-1,0,0.0969100130080564,None,materials/instructions\1_welcome.png,2.5220947000198066,4.309572800062597,0,1.6520173999015242,1.7854555000085384,0.0796627999516204,1.7892376999370754,,,,,,,,,,,,,,,,,,,,53211,60.0,
,,,0,-1,-1,0,0.0969100130080564,None,materials/instructions\2_instruction.png,4.3557617999613285,8.544977899990045,0,4.003653299994767,4.187097599962726,0.022159399930387735,4.1935884999111295,,,,,,,,,,,,,,,,,,,,53211,60.0,
,,,0,-1,-1,0,0.0969100130080564,None,materials/instructions\3_location_demo.png,8.59590269997716,12.798261599964462,0,4.016973200021312,4.2002722000470385,0.01916429994162172,4.2081261000130326,,,,,,,,,,,,,,,,,,,,53211,60.0,
,,,0,-1,-1,0,0.0969100130080564,None,materials/instructions\4_orientation_demo.png,12.85252020007465,32.84716920007486,0,19.808107699966058,19.992354199988768,0.016087700030766428,19.99914520001039,,,,,,,,,,,,,,,,,,,,53211,60.0,
,,,0,-1,-1,0,0.0969100130080564,None,materials/instructions\5_pas_demo.png,32.899179200059734,39.03502179996576,0,5.916943700052798,6.133766100043431,0.01798970007803291,6.141533600050025,,,,,,,,,,,,,,,,,,,,53211,60.0,
-77,77,-45,0,-1,-1,0,0.0969100130080564,None,,,,,,,,,session,39.05057109997142,132.0,2.0,72.0,0.1,2,3.8966956000076607,4.065311500104144,7,0.5860053999349475,0.8005475000245497,1,1.9745537999551743,2.157996500027366,,,,,53211,60.0,
77,77,0,0,-1,-1,0,0.0969100130080564,None,,,,,,,,,session,50.262948799994774,168.0,2.0,72.0,0.1,5,1.7983404999831691,1.9650783999823034,0,0.7361743000801653,0.952883500023745,1,1.5659379999851808,1.7661408999701962,,,,,53211,60.0,
77,77,-45,0,-1,-1,0,0.0969100130080564,None,,,,,,,,,session,59.135278700036,150.0,2.0,72.0,0.1,5,1.1280734000029042,1.294514299952425,1,1.4333278000121936,1.6139769000001252,6,1.5612859999528155,1.7285633999854326,,,,,53211,60.0,
77,77,45,0,-1,-1,0,0.0969100130080564,None,,,,,,,,,session,68.12830610002857,144.0,2.0,72.0,0.1,5,0.7631475999951363,0.948645900003612,7,1.7354627000167966,1.9023349999915808,6,1.418359600007534,1.5684227000456303,,,,,53211,60.0,
77,77,90,0,-1,-1,0,0.0969100130080564,None,,,,,,,,,session,76.33225229999516,138.0,2.0,72.0,0.1,5,0.5694926999276504,0.7360928999260068,6,2.4214692999375984,2.586732399999164,6,1.2478455000091344,1.397805199958384,,,,,53211,60.0,
,,,0,-1,-1,0,0.0969100130080564,None,materials/instructions\10_staircase_start.png,84.7859764000168,94.17819210002199,0,9.173431699979119,9.390213499893434,0.020815599942579865,9.398292499943636,,,,,,,,,,,,,,,,,,,,53211,60.0,
,,,0,0,-1,0,0.0969100130080564,0.1,,,,,,,,,staircase,94.1933338000672,156.0,2.0,72.0,0.1,,,,0,1.13107919995673,1.3312309000175446,,,,1,,,,53211,60.0,
,,,0,1,-1,0,0.0969100130080564,0.08,,,,,,,,,staircase,99.44807370007038,162.0,2.0,72.0,0.08,,,,7,1.4877763000549749,1.6395778000587597,,,,1,,,,53211,60.0,
,,,0,2,-1,0,0.0969100130080564,0.064,,,,,,,,,staircase,105.10525690007489,180.0,2.0,72.0,0.064,,,,1,1.0793417000677437,1.2477627000771463,,,,1,,,,53211,60.0,
,,,0,3,-1,0,0.0969100130080564,0.0512,,,,,,,,,staircase,111.34422960004304,132.0,2.0,72.0,0.0512,,,,1,2.1360150000546128,2.3025386000517756,,,,1,,,,53211,60.0,
,,,0,4,-1,0,0.0969100130080564,0.04096,,,,,,,,,staircase,117.16222699999344,168.0,2.0,72.0,0.04096,,,,0,2.177728799986653,2.343601500033401,,,,1,,,,53211,60.0,
,,,0,5,-1,0,0.0969100130080564,0.032768000000000005,,,,,,,,,staircase,123.62051120004617,180.0,2.0,72.0,0.032768000000000005,,,,0,0.370484699960798,0.5756492998916656,,,,1,,,,53211,60.0,
,,,0,6,-1,0,0.0969100130080564,0.026214400000000006,,,,,,,,,staircase,128.6788847000571,174.0,2.0,72.0,0.026214400000000006,,,,6,1.5559914999175817,1.7230377999367192,,,,1,,,,53211,60.0,
,,,0,7,-1,0,0.0969100130080564,0.020971520000000004,,,,,,,,,staircase,135.03002239996567,138.0,2.0,72.0,0.020971520000000004,,,,6,0.9375320000108331,1.087625499931164,,,,1,,,,53211,60.0,
,,,0,8,-1,0,0.0969100130080564,0.016777216000000005,,,,,,,,,staircase,139.72835480002686,180.0,2.0,72.0,0.016777216000000005,,,,0,2.0099517999915406,2.224880599998869,,,,1,,,,53211,60.0,
,,,0,9,-1,0,0.0969100130080564,0.013421772800000004,,,,,,,,,staircase,146.26907729997765,156.0,2.0,72.0,0.013421772800000004,,,,1,1.4186780999880284,1.618996600038372,,,,0,,,,53211,60.0,
,,,0,10,-1,0,0.0969100130080564,0.016777216000000005,,,,,,,,,staircase,152.0913902000757,138.0,2.0,72.0,0.016777216000000005,,,,1,1.4537180000916123,1.6386030000867322,,,,1,,,,53211,60.0,
,,,0,11,-1,0,0.0969100130080564,0.016777216000000005,,,,,,,,,staircase,157.44559600006323,126.0,2.0,72.0,0.016777216000000005,,,,7,0.6180425999918953,0.8349278999958187,,,,1,,,,53211,60.0,
,,,0,12,-1,0,0.0969100130080564,0.013421772800000004,,,,,,,,,staircase,161.6957067999756,126.0,2.0,72.0,0.013421772800000004,,,,1,1.8579279000405222,2.024675599997863,,,,0,,,,53211,60.0,
,,,0,13,-1,0,0.0969100130080564,0.016777216000000005,,,,,,,,,staircase,167.13375859998632,150.0,2.0,72.0,0.016777216000000005,,,,1,1.004676999989897,1.204797700047493,,,,1,,,,53211,60.0,
,,,0,14,-1,0,0.0969100130080564,0.016777216000000005,,,,,,,,,staircase,172.15365390002262,174.0,2.0,72.0,0.016777216000000005,,,,0,1.3037330000661314,1.4861116000683978,,,,1,,,,53211,60.0,
,,,0,15,-1,0,0.0969100130080564,0.013421772800000004,,,,,,,,,staircase,178.44370070006698,180.0,2.0,72.0,0.013421772800000004,,,,6,1.480163300060667,1.6640219000400975,,,,1,,,,53211,60.0,
,,,0,16,-1,0,0.0969100130080564,0.013421772800000004,,,,,,,,,staircase,184.46415340004023,132.0,2.0,72.0,0.013421772800000004,,,,7,0.9387213999871165,1.0905786999501288,,,,1,,,,53211,60.0,
,,,0,17,-1,0,0.0969100130080564,0.010737418240000003,,,,,,,,,staircase,189.06842300004791,180.0,2.0,72.0,0.010737418240000003,,,,6,1.261367000057362,1.41173599998001,,,,0,,,,53211,60.0,
,,,0,18,-1,0,0.0969100130080564,0.013421772800000004,,,,,,,,,staircase,194.8127060000552,174.0,2.0,72.0,0.013421772800000004,,,,1,1.3447941000340506,1.545470800017938,,,,1,,,,53211,60.0,
,,,0,19,-1,0,0.0969100130080564,0.013421772800000004,,,,,,,,,staircase,200.97747310006525,174.0,2.0,72.0,0.013421772800000004,,,,6,1.0058413998922333,1.1893570999382064,,,,0,,,,53211,60.0,
,,,0,20,-1,0,0.0969100130080564,0.016777216000000005,,,,,,,,,staircase,206.37961020006333,174.0,2.0,72.0,0.016777216000000005,,,,7,1.0716170999221504,1.2214227999793366,,,,0,,,,53211,60.0,
,,,0,21,-1,0,0.0969100130080564,0.020971520000000007,,,,,,,,,staircase,211.8183047999628,180.0,2.0,72.0,0.020971520000000007,,,,0,0.4683693000115454,0.6961318999528885,,,,1,,,,53211,60.0,
,,,0,22,-1,0,0.0969100130080564,0.020971520000000007,,,,,,,,,staircase,216.85723009996582,138.0,2.0,72.0,0.020971520000000007,,,,1,0.9009896999923512,1.0677460000151768,,,,1,,,,53211,60.0,
,,,0,23,-1,0,0.0969100130080564,0.016777216000000005,,,,,,,,,staircase,221.99401010002475,132.0,2.0,72.0,0.016777216000000005,,,,6,1.6858789999969304,1.8518886999227107,,,,1,,,,53211,60.0,
,,,0,24,-1,0,0.0969100130080564,0.016777216000000005,,,,,,,,,staircase,227.37869579996914,144.0,2.0,72.0,0.016777216000000005,,,,7,0.6505421999609098,0.8340640999376774,,,,1,,,,53211,60.0,
,,,0,25,-1,0,0.0969100130080564,0.013421772800000004,,,,,,,,,staircase,231.9340807000408,144.0,2.0,72.0,0.013421772800000004,,,,1,1.3884353999746963,1.5723822000436485,,,,1,,,,53211,60.0,
,,,0,26,-1,0,0.0969100130080564,0.013421772800000004,,,,,,,,,staircase,237.23650340002496,144.0,2.0,72.0,0.013421772800000004,,,,0,1.446368100005202,1.6144168000901118,,,,0,,,,53211,60.0,
,,,0,27,-1,0,0.0969100130080564,0.016777216000000005,,,,,,,,,staircase,242.99836630001664,156.0,2.0,72.0,0.016777216000000005,,,,0,0.48947550007142127,0.6873571000760421,,,,1,,,,53211,60.0,
,,,0,28,-1,0,0.0969100130080564,0.016777216000000005,,,,,,,,,staircase,247.61200009996537,168.0,2.0,72.0,0.016777216000000005,,,,1,0.8326997999101877,1.0351883999537677,,,,1,,,,53211,60.0,
,,,0,29,-1,0,0.0969100130080564,0.013421772800000004,,,,,,,,,staircase,252.76686410000548,126.0,2.0,72.0,0.013421772800000004,,,,0,1.2703502000076696,1.4370208999607712,,,,0,,,,53211,60.0,
,,,0,30,-1,0,0.0969100130080564,0.016777216000000005,,,,,,,,,staircase,257.6351190999849,144.0,2.0,72.0,0.016777216000000005,,,,6,1.2652019000379369,1.3854607000248507,,,,0,,,,53211,60.0,
,,,0,31,-1,0,0.0969100130080564,0.020971520000000007,,,,,,,,,staircase,262.9963575999718,150.0,2.0,72.0,0.020971520000000007,,,,7,0.3984192000934854,0.6316368000116199,,,,1,,,,53211,60.0,
,,,0,32,-1,0,0.0969100130080564,0.020971520000000007,,,,,,,,,staircase,267.46093940001447,156.0,2.0,72.0,0.020971520000000007,,,,1,1.0225024999817833,1.2226477999938652,,,,1,,,,53211,60.0,
,,,0,33,-1,0,0.0969100130080564,0.016777216000000005,,,,,,,,,staircase,272.5966997999931,156.0,2.0,72.0,0.016777216000000005,,,,1,1.0569029001053423,1.2070132000371814,,,,0,,,,53211,60.0,
,,,0,34,-1,0,0.0969100130080564,0.020971520000000007,,,,,,,,,staircase,277.7170116000343,156.0,2.0,72.0,0.020971520000000007,,,,7,1.2870308000128716,1.4370383000932634,,,,1,,,,53211,60.0,
,,,0,35,-1,0,0.0969100130080564,0.020971520000000007,,,,,,,,,staircase,283.0742530999705,174.0,2.0,72.0,0.020971520000000007,,,,7,0.3666758999461308,0.5166236000368372,,,,1,,,,53211,60.0,
,,,0,36,-1,0,0.0969100130080564,0.016777216000000005,,,,,,,,,staircase,288.26146639999934,150.0,2.0,72.0,0.016777216000000005,,,,6,1.1503600999712944,1.2504906000103801,,,,0,,,,53211,60.0,
,,,0,37,-1,0,0.0969100130080564,0.020971520000000007,,,,,,,,,staircase,293.3300259000389,138.0,2.0,72.0,0.020971520000000007,,,,1,0.8698704999405891,1.0032105999998748,,,,1,,,,53211,60.0,
,,,0,38,-1,0,0.0969100130080564,0.020971520000000007,,,,,,,,,staircase,297.94901109999046,168.0,2.0,72.0,0.020971520000000007,,,,7,0.7541858999757096,0.9056432000361383,,,,1,,,,53211,60.0,
,,,0,39,-1,0,0.0969100130080564,0.016777216000000005,,,,,,,,,staircase,302.97057340003084,150.0,2.0,72.0,0.016777216000000005,,,,7,0.4792330999625847,0.6486106000375003,,,,1,,,,53211,60.0,
,,,0,40,-1,0,0.0969100130080564,0.016777216000000005,,,,,,,,,staircase,307.9958393999841,168.0,2.0,72.0,0.016777216000000005,,,,6,0.672225599992089,0.6903243000851944,,,,1,,,,53211,60.0,
,,,0,41,-1,0,0.0969100130080564,0.013421772800000004,,,,,,,,,staircase,312.8146541999886,168.0,2.0,72.0,0.013421772800000004,,,,1,1.2393738999962807,1.422886300017126,,,,0,,,,53211,60.0,
,,,0,42,-1,0,0.0969100130080564,0.016777216000000005,,,,,,,,,staircase,318.3480937000131,162.0,2.0,72.0,0.016777216000000005,,,,0,0.287919900030829,0.4854204999282956,,,,1,,,,53211,60.0,
,,,0,43,-1,0,0.0969100130080564,0.016777216000000005,,,,,,,,,staircase,322.850706600002,150.0,2.0,72.0,0.016777216000000005,,,,7,1.1668997999513522,1.3002775999484584,,,,1,,,,53211,60.0,
,,,0,44,-1,0,0.0969100130080564,0.013421772800000004,,,,,,,,,staircase,328.11351090006065,162.0,2.0,72.0,0.013421772800000004,,,,1,1.170100299990736,1.386721600079909,,,,0,,,,53211,60.0,
,,,0,45,-1,0,0.0969100130080564,0.016777216000000005,,,,,,,,,staircase,333.77828359999694,138.0,2.0,72.0,0.016777216000000005,,,,0,1.131687399931252,1.3004645999753848,,,,1,,,,53211,60.0,
,,,0,46,-1,0,0.0969100130080564,0.016777216000000005,,,,,,,,,staircase,338.6997749999864,168.0,2.0,72.0,0.016777216000000005,,,,1,0.8219614999834448,1.0054807999404147,,,,1,,,,53211,60.0,
,,,0,47,-1,0,0.0969100130080564,0.013421772800000004,,,,,,,,,staircase,343.8182622999884,174.0,2.0,72.0,0.013421772800000004,,,,6,0.6010201000608504,0.7345767000224441,,,,1,,,,53211,60.0,
,,,0,48,-1,0,0.0969100130080564,0.013421772800000004,,,,,,,,,staircase,348.77132800000254,150.0,2.0,72.0,0.013421772800000004,,,,6,0.8957911999896169,1.0463577000191435,,,,0,,,,53211,60.0,
,,,0,49,-1,0,0.0969100130080564,0.016777216000000005,,,,,,,,,staircase,354.17907319997903,132.0,2.0,72.0,0.016777216000000005,,,,1,1.0591010999633,1.2396595999598503,,,,0,,,,53211,60.0,
,,,0,50,-1,0,0.0969100130080564,0.020971520000000007,,,,,,,,,staircase,358.92932830005884,162.0,2.0,72.0,0.020971520000000007,,,,7,0.7026677000103518,0.8693656000541523,,,,1,,,,53211,60.0,
,,,0,51,-1,0,0.0969100130080564,0.020971520000000007,,,,,,,,,staircase,363.81588430004194,174.0,2.0,72.0,0.020971520000000007,,,,0,0.7463630000129342,0.9131933000171557,,,,1,,,,53211,60.0,
,,,0,52,-1,0,0.0969100130080564,0.016777216000000005,,,,,,,,,staircase,368.9527401999803,138.0,2.0,72.0,0.016777216000000005,,,,0,0.01230930001474917,0.23269760003313422,,,,1,,,,53211,60.0,
,,,0,53,-1,0,0.0969100130080564,0.016777216000000005,,,,,,,,,staircase,373.36366510007065,126.0,2.0,72.0,0.016777216000000005,,,,1,0.47019030002411455,0.6535649000434205,,,,1,,,,53211,60.0,
,,,0,54,-1,0,0.0969100130080564,0.013421772800000004,,,,,,,,,staircase,377.4614435000112,168.0,2.0,72.0,0.013421772800000004,,,,6,1.13753289997112,1.2537607999984175,,,,0,,,,53211,60.0,
,,,0,55,-1,0,0.0969100130080564,0.016777216000000005,,,,,,,,,staircase,382.84780129999854,162.0,2.0,72.0,0.016777216000000005,,,,1,1.104206299991347,1.2738839000230655,,,,0,,,,53211,60.0,
,,,0,56,-1,0,0.0969100130080564,0.020971520000000007,,,,,,,,,staircase,388.1374196000397,126.0,2.0,72.0,0.020971520000000007,,,,6,1.4651529000839218,1.54850430006627,,,,1,,,,53211,60.0,
,,,0,57,-1,0,0.0969100130080564,0.020971520000000007,,,,,,,,,staircase,393.09719010000117,174.0,2.0,72.0,0.020971520000000007,,,,7,0.7874082000926137,0.9366852000821382,,,,1,,,,53211,60.0,
,,,0,58,-1,0,0.0969100130080564,0.016777216000000005,,,,,,,,,staircase,398.8116377000697,150.0,2.0,72.0,0.016777216000000005,,,,6,0.8205708999885246,0.9693769000004977,,,,1,,,,53211,60.0,
,,,0,59,-1,0,0.0969100130080564,0.016777216000000005,,,,,,,,,staircase,403.5966889000265,138.0,2.0,72.0,0.016777216000000005,,,,1,1.135523600038141,1.3376119000604376,,,,1,,,,53211,60.0,
,,,0,60,-1,0,0.0969100130080564,0.013421772800000004,,,,,,,,,staircase,408.5522299000295,174.0,2.0,72.0,0.013421772800000004,,,,6,0.45739470003172755,0.6575223000254482,,,,1,,,,53211,60.0,
,,,0,61,-1,0,0.0969100130080564,0.013421772800000004,,,,,,,,,staircase,413.43770510004833,168.0,2.0,72.0,0.013421772800000004,,,,6,0.28727519989479333,0.46635759994387627,,,,1,,,,53211,60.0,
,,,0,62,-1,0,0.0969100130080564,0.010737418240000003,,,,,,,,,staircase,418.59405309997965,162.0,2.0,72.0,0.010737418240000003,,,,0,1.2021432999754325,1.368935199920088,,,,0,,,,53211,60.0,
,,,0,63,-1,0,0.0969100130080564,0.013421772800000004,,,,,,,,,staircase,423.9780967000406,126.0,2.0,72.0,0.013421772800000004,,,,1,0.9360744999721646,1.0683021999429911,,,,0,,,,53211,60.0,
,,,0,64,-1,0,0.0969100130080564,0.016777216000000005,,,,,,,,,staircase,428.4651788000483,174.0,2.0,72.0,0.016777216000000005,,,,1,0.5886456000152975,0.7714336999924853,,,,1,,,,53211,60.0,
,,,0,65,-1,0,0.0969100130080564,0.016777216000000005,,,,,,,,,staircase,433.45295050006825,168.0,2.0,72.0,0.016777216000000005,,,,7,0.5659490999532863,0.699508500052616,,,,1,,,,53211,60.0,
,,,0,66,-1,0,0.0969100130080564,0.013421772800000004,,,,,,,,,staircase,438.4308449999662,138.0,2.0,72.0,0.013421772800000004,,,,1,0.5570569999981672,0.707023199996911,,,,1,,,,53211,60.0,
,,,0,67,-1,0,0.0969100130080564,0.013421772800000004,,,,,,,,,staircase,443.0122515000403,150.0,2.0,72.0,0.013421772800000004,,,,1,0.7860885000554845,0.9526709000347182,,,,0,,,,53211,60.0,
,,,0,68,-1,0,0.0969100130080564,0.016777216000000005,,,,,,,,,staircase,447.77953140006866,174.0,2.0,72.0,0.016777216000000005,,,,1,0.35015980002935976,0.5002683000639081,,,,1,,,,53211,60.0,
,,,0,69,-1,0,0.0969100130080564,0.016777216000000005,,,,,,,,,staircase,452.50043610006105,126.0,2.0,72.0,0.016777216000000005,,,,0,1.4545363000361249,1.6214198999805376,,,,1,,,,53211,60.0,
,,,0,-1,-1,0,,,materials/instructions\11_session_start.png,457.5696959999623,468.17906049999874,0,10.40899659995921,10.607481400016695,0.020563500002026558,10.615349599975161,,,,,,,,,,,,,,,,,,,,53211,60.0,
,,,0,-1,-1,0,,,,,,,,,,,,,,,,,,,,,,,,,,,0.016835936256000005,,,53211,60.0,
77,-77,0,0,0,0,9,,,,,,,,,,,session,468.1969668000238,132.0,2.0,72.0,0.016835936256000005,2,1.5760239000665024,1.7427525999955833,0,1.3380667999153957,1.4380873999325559,0,0.749661699985154,0.9010706999106333,,,63.0,48.0,53211,60.0,
77,-77,90,0,1,1,11,,,,,,,,,,,session,477.80525239999406,138.0,2.0,72.0,0.016835936256000005,4,2.2891887000296265,2.467041000025347,6,0.7524950000224635,0.8873206999851391,1,1.0400418000062928,1.203840099973604,,,57.0,69.0,53211,60.0,
77,77,0,0,2,2,1,,,,,,,,,,,session,488.4158210000023,126.0,2.0,72.0,0.016835936256000005,5,0.6026288999710232,0.7508033000631258,0,0.9562709000892937,1.1566948000108823,6,1.299650099943392,1.40234289993532,,,69.0,63.0,53211,60.0,
77,77,45,0,3,3,2,,,,,,,,,,,session,497.4715683000395,144.0,2.0,72.0,0.016835936256000005,5,0.771901199943386,0.9224767999257892,7,1.290259600034915,1.4185238999780267,6,1.9445946000050753,2.06129390001297,,,51.0,54.0,53211,60.0,
-77,77,-45,0,4,4,4,,,,,,,,,,,session,507.59773939999286,138.0,2.0,72.0,0.016835936256000005,2,0.711331499973312,0.9122052999446169,1,1.022624299977906,1.1892864999826998,1,0.4678275000769645,0.617789400042966,,,72.0,69.0,53211,60.0,
77,-77,45,0,5,5,10,,,,,,,,,,,session,516.4332060000161,144.0,2.0,72.0,0.016835936256000005,4,1.1500046000583097,1.2835462000221014,7,0.9059499999275431,1.0393129999283701,1,0.6840366000542417,0.8509094000328332,,,57.0,63.0,53211,60.0,
77,77,-45,0,6,6,0,,,,,,,,,,,session,525.4570549000055,144.0,2.0,72.0,0.016835936256000005,5,0.7770939000183716,0.8962641999823973,1,0.9537417000392452,1.1712722999509424,6,1.1794455000199378,1.2969515000004321,,,57.0,57.0,53211,60.0,
77,77,90,0,7,7,3,,,,,,,,,,,session,535.1643882000353,180.0,2.0,72.0,0.016835936256000005,5,0.6240812999894843,0.7554261999903247,6,0.9196806999389082,1.0697746999794617,1,0.5210117000387982,0.6849155999952927,,,51.0,54.0,53211,60.0,
-77,-77,45,0,8,8,14,,,,,,,,,,,session,543.8866691000294,132.0,2.0,72.0,0.016835936256000005,3,0.6821098999353126,0.860015399986878,1,1.7251291000284255,1.9053314999910071,1,0.36718049994669855,0.567108100047335,,,69.0,63.0,53211,60.0,
77,-77,-45,0,9,9,8,,,,,,,,,,,session,553.1634422000498,168.0,2.0,72.0,0.016835936256000005,4,0.7842439000960439,0.9356724000535905,1,0.7684136000461876,0.9518710999982432,6,1.4692773999413475,1.6202792000258341,,,48.0,57.0,53211,60.0,
-77,77,45,0,10,10,6,,,,,,,,,,,session,562.6694604000077,144.0,2.0,72.0,0.016835936256000005,2,3.2377911999356,3.4219381000148132,0,0.40816110000014305,0.5585737999062985,0,0.36709529999643564,0.5457703000865877,,,54.0,51.0,53211,60.0,
-77,-77,90,0,11,11,15,,,,,,,,,,,session,572.8474094000412,156.0,2.0,72.0,0.016835936256000005,2,1.6452275000046939,1.7784847000148147,0,0.487837600056082,0.6382006000494584,0,0.5653621000237763,0.7161099000368267,,,57.0,72.0,53211,60.0,
-77,77,0,0,12,12,5,,,,,,,,,,,session,582.1994390999898,180.0,2.0,72.0,0.016835936256000005,2,1.1497763999504969,1.366612899932079,1,1.0525201000273228,1.2186579999979585,1,0.620337100001052,0.7942913000006229,,,57.0,66.0,53211,60.0,
-77,-77,-45,0,13,13,12,,,,,,,,,,,session,592.0848406000296,168.0,2.0,72.0,0.016835936256000005,3,0.771358500001952,0.9695128999883309,7,1.5555395999690518,1.7209639999782667,1,0.9542194999521598,1.1203406000277027,,,54.0,51.0,53211,60.0,
-77,-77,0,0,14,14,13,,,,,,,,,,,session,602.4153027000139,174.0,2.0,72.0,0.016835936256000005,3,0.7353821001015604,0.9374128000345081,0,1.3399319000309333,1.5068854000419378,1,0.4909025999950245,0.6582038999767974,,,72.0,48.0,53211,60.0,
-77,77,90,0,15,15,7,,,,,,,,,,,session,611.8574550000485,150.0,2.0,72.0,0.016835936256000005,2,1.014674699981697,1.1645992998965085,6,0.9853758999379352,1.1020616999594495,1,0.7374924999894574,0.8888779999688268,,,60.0,60.0,53211,60.0,
-77,-77,45,1,0,16,14,,,,,,,,,,,session,621.4515534000238,162.0,2.0,72.0,0.016835936256000005,3,0.7018942000577226,0.8530730999773368,7,1.1550414999946952,1.2717844999860972,1,0.6504287000279874,0.7977467000018805,,,72.0,69.0,53211,60.0,
-77,-77,0,1,1,17,13,,,,,,,,,,,session,630.886188799981,132.0,2.0,72.0,0.016835936256000005,3,0.6722585000097752,0.8224410000257194,1,1.3649738999083638,1.4981603999622166,1,0.8818914999719709,1.012257399968803,,,54.0,66.0,53211,60.0,
77,-77,0,1,2,18,9,,,,,,,,,,,session,639.8823969999794,150.0,2.0,72.0,0.016835936256000005,4,0.6153169000754133,0.7652924000285566,1,1.2880770000629127,1.4215451000491157,1,0.4492944999365136,0.6177509999834001,,,69.0,60.0,53211,60.0,
77,-77,45,1,3,19,10,,,,,,,,,,,session,648.8042706999695,150.0,2.0,72.0,0.016835936256000005,4,0.8032838999060914,0.9862126999069005,7,1.189512399956584,1.3396384000079706,1,0.8441179000074044,0.9859434000682086,,,72.0,72.0,53211,60.0,
77,-77,45,1,3,19,10,,,materials/instructions\12_break.png,658.482409600052,677.3370932000689,0,18.68558990000747,18.852585899992846,0.010160100064240396,18.860227099969052,,,,,,,,,,,,,,,,,,,,53211,60.0,
-77,77,-45,1,4,20,4,,,,,,,,,,,session,677.3526915999828,180.0,2.0,72.0,0.016835936256000005,2,0.7007370999781415,0.8547215999569744,1,0.9174298000289127,1.0862376000732183,1,0.6055688000051305,0.7201135000213981,,,69.0,57.0,53211,60.0,
-77,-77,-45,1,5,21,12,,,,,,,,,,,session,687.0654686000198,168.0,2.0,72.0,0.016835936256000005,3,0.6480862000025809,0.7816298000980169,6,1.172373600071296,1.2550976000493392,1,0.3028356999857351,0.45125619997270405,,,54.0,54.0,53211,60.0,
77,77,-45,1,6,22,0,,,,,,,,,,,session,695.602953499998,168.0,2.0,72.0,0.016835936256000005,5,0.6041367000434548,0.7208763000089675,1,0.8063210999825969,0.9310542000457644,1,0.5266344998963177,0.6314064000034705,,,63.0,48.0,53211,60.0,
77,77,45,1,7,23,2,,,,,,,,,,,session,703.9847864999902,150.0,2.0,72.0,0.016835936256000005,2,1.3020374999614432,1.4021739000454545,0,0.31951659999322146,0.4528342999983579,0,0.45311579992994666,0.6030810999218374,,,72.0,57.0,53211,60.0,
-77,-77,90,1,8,24,15,,,,,,,,,,,session,712.7155168000609,174.0,2.0,72.0,0.016835936256000005,3,0.7363290999783203,0.9198405999923125,0,0.5699490000260994,0.720173200010322,1,1.0033311999868602,1.1368994999211282,,,63.0,66.0,53211,60.0,
-77,77,0,1,9,25,5,,,,,,,,,,,session,721.9931369000115,132.0,2.0,72.0,0.016835936256000005,2,0.7813180000521243,0.9144617000129074,1,1.142598900012672,1.276002100086771,1,0.3825987000018358,0.5327422999544069,,,54.0,51.0,53211,60.0,
-77,77,90,1,10,26,7,,,,,,,,,,,session,730.4650963000022,132.0,2.0,72.0,0.016835936256000005,5,1.0150661000516266,1.1325689000077546,0,0.8030285000568256,1.020457400009036,0,0.33404510002583265,0.5174809000454843,,,57.0,72.0,53211,60.0,
77,-77,-45,1,11,27,8,,,,,,,,,,,session,738.9363771000644,162.0,2.0,72.0,0.016835936256000005,4,0.9847615999169648,1.1524274999974295,6,1.792385899927467,1.8994234999408945,1,0.4994332999922335,0.6715158999431878,,,60.0,51.0,53211,60.0,
77,77,0,1,12,28,1,,,,,,,,,,,session,748.6685635000467,150.0,2.0,72.0,0.016835936256000005,5,0.7019098000600934,0.8686858000000939,6,1.2035839000018314,1.3551674999762326,1,0.4690701001090929,0.6034744000062346,,,60.0,60.0,53211,60.0,
77,77,90,1,13,29,3,,,,,,,,,,,session,757.5006557999877,144.0,2.0,72.0,0.016835936256000005,5,0.5845862999558449,0.7502267999807373,6,0.42103760002646595,0.5885536000132561,1,0.4589187999954447,0.6089599999831989,,,54.0,69.0,53211,60.0,
77,-77,90,1,14,30,11,,,,,,,,,,,session,765.3409164999612,132.0,2.0,72.0,0.016835936256000005,4,1.5617044999962673,1.7114123000064865,1,1.249341299990192,1.399347999948077,1,0.32501659996341914,0.49037740007042885,,,63.0,69.0,53211,60.0,
-77,77,45,1,15,31,6,,,,,,,,,,,session,774.764823100064,144.0,2.0,72.0,0.016835936256000005,2,0.8193869999377057,0.9679885000223294,7,0.80044560006354,0.9175849000457674,6,0.452650299994275,0.5882837000535801,,,69.0,54.0,53211,60.0,
77,77,-45,2,0,32,0,,,,,,,,,,,session,783.137963599991,174.0,2.0,72.0,0.016835936256000005,5,0.6339901000028476,0.7684887000359595,1,1.0405589999863878,1.1905399999814108,6,0.6802860000170767,0.7920892999973148,,,63.0,54.0,53211,60.0,
-77,77,45,2,1,33,6,,,,,,,,,,,session,792.1974107000278,138.0,2.0,72.0,0.016835936256000005,2,0.520693700062111,0.7032133999746293,7,0.7049389999592677,0.8382755999919027,6,0.9692640999564901,1.069260000018403,,,69.0,69.0,53211,60.0,
77,77,90,2,2,34,3,,,,,,,,,,,session,801.0990060999757,180.0,2.0,72.0,0.016835936256000005,2,1.1022014999762177,1.2351219999836758,0,0.3368764999322593,0.48722259991336614,0,0.41686719993595034,0.5334910999517888,,,54.0,57.0,53211,60.0,
77,-77,90,2,3,35,11,,,,,,,,,,,session,809.6564538000384,174.0,2.0,72.0,0.016835936256000005,2,1.1629480000119656,1.3296252000145614,0,0.43148919998202473,0.5983012999640778,0,0.7156499999109656,0.8812051999848336,,,63.0,48.0,53211,60.0,
77,77,45,2,4,36,2,,,,,,,,,,,session,818.9483494000742,162.0,2.0,72.0,0.016835936256000005,5,1.8179391999728978,1.9519287999719381,0,1.457294800085947,1.6230773000279441,0,0.35458689997904,0.5381267999764532,,,54.0,69.0,53211,60.0,
-77,77,0,2,5,37,5,,,,,,,,,,,session,829.2711034000386,138.0,2.0,72.0,0.016835936256000005,2,0.7046060999855399,0.8714066999964416,0,1.270626200013794,1.4206388000166044,1,0.664667300065048,0.784775200067088,,,69.0,63.0,53211,60.0,
-77,-77,0,2,6,38,13,,,,,,,,,,,session,838.3198769000592,132.0,2.0,72.0,0.016835936256000005,3,0.8561170999892056,0.9889956000261009,1,1.7354805999202654,1.8855655000079423,1,0.4675551999825984,0.6353695000289008,,,51.0,60.0,53211,60.0,
77,77,0,2,7,39,1,,,,,,,,,,,session,847.336115400074,150.0,2.0,72.0,0.016835936256000005,5,0.6105290000559762,0.744761300040409,0,1.6902232998982072,1.840190599905327,6,0.4029087000526488,0.6195499000605196,,,66.0,57.0,53211,60.0,
77,77,0,2,7,39,1,,,materials/instructions\12_break.png,856.554173600045,858.363817500067,0,1.6578474000561982,1.8078656999859959,0.022368400008417666,1.8157147000310943,,,,,,,,,,,,,,,,,,,,53211,60.0,
-77,-77,90,2,8,40,15,,,,,,,,,,,session,858.3805421000579,174.0,2.0,72.0,0.016835936256000005,3,0.6707535999594256,0.8199006000068039,6,0.9844700000248849,1.1176259000785649,1,0.6198838000418618,0.7858144000638276,,,57.0,66.0,53211,60.0,
-77,-77,45,2,9,41,14,,,,,,,,,,,session,867.8171569000697,174.0,2.0,72.0,0.016835936256000005,3,0.6379445999627933,0.7881669000489637,1,0.6242566000437364,0.790982500067912,1,0.41804579994641244,0.5515822999877855,,,57.0,54.0,53211,60.0,
77,-77,45,2,10,42,10,,,,,,,,,,,session,876.157245200011,138.0,2.0,72.0,0.016835936256000005,4,0.571619899943471,0.704932100023143,1,0.43499390000943094,0.6049629000481218,1,0.3365422000642866,0.4870688000228256,,,69.0,63.0,53211,60.0,
77,-77,-45,2,11,43,8,,,,,,,,,,,session,884.1845477999886,162.0,2.0,72.0,0.016835936256000005,5,0.9015672999667004,1.0016417999286205,6,0.7395159000298008,0.8692652001045644,1,0.40008820011280477,0.5486906000878662,,,66.0,54.0,53211,60.0,
-77,77,-45,2,12,44,4,,,,,,,,,,,session,892.7669700999977,132.0,2.0,72.0,0.016835936256000005,2,0.7209331999765709,0.9211916999192908,0,0.5190163999795914,0.6882459999760613,1,0.4738465999253094,0.637155499891378,,,69.0,60.0,53211,60.0,
-77,-77,-45,2,13,45,12,,,,,,,,,,,session,900.8096719000023,174.0,2.0,72.0,0.016835936256000005,3,0.39824220002628863,0.5481901000021026,1,0.9035109999822453,1.0713784999679774,1,0.5309852999635041,0.6811097000027075,,,48.0,63.0,53211,60.0,
-77,77,90,2,14,46,7,,,,,,,,,,,session,909.966883599991,156.0,2.0,72.0,0.016835936256000005,2,0.9681947999633849,1.1355941999936476,0,0.3482912000035867,0.5142202000133693,0,0.4688467000378296,0.6356664000777528,,,51.0,54.0,53211,60.0,
77,-77,0,2,15,47,9,,,,,,,,,,,session,918.0553809000412,162.0,2.0,72.0,0.016835936256000005,4,0.684406999964267,0.8348821999970824,7,0.7287451000884175,0.8621935000410303,6,0.33779879997018725,0.46823400002904236,,,66.0,69.0,53211,60.0,
77,77,-45,3,0,48,0,,,,,,,,,,,session,926.6538684000261,126.0,2.0,72.0,0.016835936256000005,5,0.6667992000002414,0.8023233000421897,1,0.7369310000212863,0.8869885000167415,6,0.9495622999966145,1.0674913000548258,,,66.0,69.0,53211,60.0,
-77,-77,45,3,1,49,14,,,,,,,,,,,session,935.2196039999835,150.0,2.0,72.0,0.016835936256000005,3,0.6701760999858379,0.8194884000113234,7,1.1854449000675231,1.28757620009128,1,0.2997557999333367,0.46645049995277077,,,48.0,66.0,53211,60.0,
-77,-77,0,3,2,50,13,,,,,,,,,,,session,943.6407525000395,138.0,2.0,72.0,0.016835936256000005,3,0.5979135000379756,0.7312512999633327,0,0.420291900052689,0.5894604000495747,6,0.4149127999553457,0.5482090000296012,,,51.0,60.0,53211,60.0,
77,-77,45,3,3,51,10,,,,,,,,,,,session,951.7337763999822,168.0,2.0,72.0,0.016835936256000005,4,0.6519051999785006,0.8186654999153689,7,1.5196874000830576,1.6195854000980034,1,0.3644979000091553,0.48213849996682256,,,57.0,72.0,53211,60.0,
77,77,45,3,4,52,2,,,,,,,,,,,session,961.0555180000374,144.0,2.0,72.0,0.016835936256000005,2,0.9721183999208733,1.1729588999878615,0,0.34313779999502003,0.5258146999403834,0,0.4146397999720648,0.5483177000423893,,,60.0,48.0,53211,60.0,
-77,77,0,3,5,53,5,,,,,,,,,,,session,968.9533279000316,180.0,2.0,72.0,0.016835936256000005,2,1.0000066999346018,1.1185544999316335,0,0.33813400007784367,0.4382545000407845,0,0.3556068000616506,0.5055433000670746,,,72.0,63.0,53211,60.0,
77,-77,0,3,6,54,9,,,,,,,,,,,session,977.9515301999636,126.0,2.0,72.0,0.016835936256000005,4,0.6203113000374287,0.7701451000757515,0,0.3701514999847859,0.5692871999926865,6,0.38506690005306154,0.5348999999696389,,,51.0,63.0,53211,60.0,
-77,77,90,3,7,55,7,,,,,,,,,,,session,985.2916566999629,180.0,2.0,72.0,0.016835936256000005,2,0.8147312999935821,0.9704961999086663,0,0.34033909998834133,0.5067988999653608,0,0.31553059990983456,0.4526738999411464,,,69.0,54.0,53211,60.0,
77,-77,-45,3,8,56,8,,,,,,,,,,,session,993.7209438000573,174.0,2.0,72.0,0.016835936256000005,4,0.6839616999495775,0.786245199968107,6,1.2708170999540016,1.3708767999196425,1,0.33556010003667325,0.4521934000076726,,,54.0,63.0,53211,60.0,
-77,77,-45,3,9,57,4,,,,,,,,,,,session,1002.6362733000424,180.0,2.0,72.0,0.016835936256000005,2,0.8398920999607071,1.0062170999590307,1,0.4731399000156671,0.6565528999781236,1,1.4790014999452978,1.6057275999337435,,,54.0,60.0,53211,60.0,
77,-77,90,3,10,58,11,,,,,,,,,,,session,1012.2460104000056,174.0,2.0,72.0,0.016835936256000005,4,0.5559384999796748,0.7226742999628186,6,0.5596302000340074,0.6749126000795513,1,0.5375455999746919,0.6719748000614345,,,51.0,48.0,53211,60.0,
-77,-77,-45,3,11,59,12,,,,,,,,,,,session,1020.8022015000461,132.0,2.0,72.0,0.016835936256000005,3,0.7379967999877408,0.8713489999063313,1,0.658964000060223,0.789733900106512,6,0.7672994000604376,0.8692035999847576,,,54.0,48.0,53211,60.0,
-77,-77,-45,3,11,59,12,,,materials/instructions\12_break.png,1028.70242960006,1040.9492333000526,0,12.128017600043677,12.244791500037536,0.021416899980977178,12.252059600083157,,,,,,,,,,,,,,,,,,,,53211,60.0,
-77,77,45,3,12,60,6,,,,,,,,,,,session,1040.9650816000067,150.0,2.0,72.0,0.016835936256000005,2,0.626431499957107,0.7929990999400616,7,0.7064167000353336,0.8231879000086337,1,0.31524840008933097,0.46548260003328323,,,69.0,63.0,53211,60.0,
-77,-77,90,3,13,61,15,,,,,,,,,,,session,1049.2049498000415,162.0,2.0,72.0,0.016835936256000005,3,0.48890679993201047,0.6521095999050885,6,0.8266002000309527,0.9505482000531629,1,0.6301642999751493,0.7801271000644192,,,60.0,66.0,53211,60.0,
77,77,90,3,14,62,3,,,,,,,,,,,session,1057.8379353999626,138.0,2.0,72.0,0.016835936256000005,5,0.7188136000186205,0.8512893000151962,6,0.3372508999891579,0.45155360002536327,6,0.5252693999791518,0.608823399990797,,,69.0,48.0,53211,60.0,
77,77,0,3,15,63,1,,,,,,,,,,,session,1065.5518885999918,180.0,2.0,72.0,0.016835936256000005,2,0.802896499983035,1.0030568999936804,0,0.32029470009729266,0.48715080006513745,0,0.33155620004981756,0.4823235000949353,,,72.0,60.0,53211,60.0,
77,77,45,4,0,64,2,,,,,,,,,,,session,1074.1759600000223,174.0,2.0,72.0,0.016835936256000005,5,0.6199558000080287,0.7717054999666288,7,0.8135999999940395,0.9009515999350697,1,0.41849769989494234,0.5511144999181852,,,48.0,57.0,53211,60.0,
77,77,-45,4,1,65,0,,,,,,,,,,,session,1082.70254139998,144.0,2.0,72.0,0.016835936256000005,5,0.6319497000658885,0.7325632000574842,1,1.1794955999357626,1.330785800004378,6,0.806200799997896,0.9222722999984398,,,66.0,63.0,53211,60.0,
77,-77,45,4,2,66,10,,,,,,,,,,,session,1091.6896418000106,144.0,2.0,72.0,0.016835936256000005,4,0.536062499973923,0.6859979999717325,7,1.022827599896118,1.1235177000053227,6,1.474189899978228,1.6079178999643773,,,54.0,51.0,53211,60.0,
77,77,0,4,3,67,1,,,,,,,,,,,session,1100.6986037000315,126.0,2.0,72.0,0.016835936256000005,5,0.7493663999484852,0.8662491999566555,0,0.6133188999956474,0.7314731000224128,7,0.3749353000894189,0.5083215000340715,,,63.0,60.0,53211,60.0,
77,-77,-45,4,4,68,8,,,,,,,,,,,session,1108.8347029000288,174.0,2.0,72.0,0.016835936256000005,4,0.4189987999852747,0.5530001999577507,1,0.7571625000564381,0.9245876000495628,6,0.46684340003412217,0.650266999960877,,,57.0,54.0,53211,60.0,
-77,-77,-45,4,5,69,12,,,,,,,,,,,session,1117.1561789000407,150.0,2.0,72.0,0.016835936256000005,3,0.6542532999301329,0.787697899970226,1,0.3036464999895543,0.4818761999486014,1,0.38187959999777377,0.515510999946855,,,54.0,69.0,53211,60.0,
-77,-77,45,4,6,70,14,,,,,,,,,,,session,1124.9504259000532,162.0,2.0,72.0,0.016835936256000005,3,1.1197442000266165,1.2698019000235945,7,1.1537386999698356,1.2871655999915674,1,0.43620909994933754,0.5863705999217927,,,72.0,63.0,53211,60.0,
77,77,90,4,7,71,3,,,,,,,,,,,session,1134.502620800049,138.0,2.0,72.0,0.016835936256000005,5,0.5907323999563232,0.7067959000123665,1,1.240472900099121,1.4250967000843957,1,0.47103210003115237,0.6210739000234753,,,72.0,57.0,53211,60.0,
-77,77,0,4,8,72,5,,,,,,,,,,,session,1143.1431503000204,156.0,2.0,72.0,0.016835936256000005,2,0.5665508999954909,0.7165720999473706,0,0.47459330002311617,0.6060568999964744,1,0.33611280005425215,0.4862373999785632,,,51.0,48.0,53211,60.0,
-77,77,90,4,9,73,7,,,,,,,,,,,session,1151.2016997999744,150.0,2.0,72.0,0.016835936256000005,2,1.0888594000134617,1.2890036000171676,0,0.6249096000101417,0.7917180000804365,0,0.972046900074929,1.1057385000167415,,,51.0,48.0,53211,60.0,
77,-77,90,4,10,74,11,,,,,,,,,,,session,1159.9723866999848,150.0,2.0,72.0,0.016835936256000005,4,0.8963512000627816,1.030263900058344,6,1.1726295999251306,1.305765699944459,1,0.7342575000366196,0.9155699999537319,,,69.0,48.0,53211,60.0,
-77,-77,0,4,11,75,13,,,,,,,,,,,session,1169.1192527000094,132.0,2.0,72.0,0.016835936256000005,3,0.6880440999520943,0.8046151999151334,0,0.47181100002489984,0.5877099999925122,1,0.9198877000017092,1.070111699984409,,,63.0,57.0,53211,60.0,
-77,77,-45,4,12,76,4,,,,,,,,,,,session,1177.2392065000022,156.0,2.0,72.0,0.016835936256000005,2,0.7192837999900803,0.836083099944517,1,1.1403210000135005,1.2915536999935284,1,0.3057610000250861,0.45586590003222227,,,54.0,57.0,53211,60.0,
-77,-77,90,4,13,77,15,,,,,,,,,,,session,1185.7088077999651,150.0,2.0,72.0,0.016835936256000005,3,0.7131692999973893,0.819447600049898,6,0.8020749000133947,0.9680386999389157,1,0.48280360002536327,0.6328567999880761,,,51.0,57.0,53211,60.0,
-77,77,45,4,14,78,6,,,,,,,,,,,session,1194.2844082000665,126.0,2.0,72.0,0.016835936256000005,2,0.7539819999365136,0.8540476999478415,6,0.7059457000577822,0.7876063000876456,1,1.2888587999623269,1.438986000022851,,,54.0,63.0,53211,60.0,
77,-77,0,4,15,79,9,,,,,,,,,,,session,1202.8552550000604,138.0,2.0,72.0,0.016835936256000005,4,0.7190682999789715,0.8357219999888912,0,1.3560892000095919,1.4898835000349209,1,0.7320803999900818,0.9104430000297725,,,51.0,48.0,53211,60.0,
77,-77,0,4,15,79,9,,,materials/instructions\12_break.png,1211.5132176000625,1217.5166113000596,0,5.78479160007555,6.001737500075251,0.016277399961836636,6.009271200047806,,,,,,,,,,,,,,,,,,,,53211,60.0,
77,77,0,5,0,80,1,,,,,,,,,,,session,1217.5332057999913,138.0,2.0,72.0,0.016835936256000005,2,1.2992313000140712,1.4659795999759808,0,1.6941356000024825,1.8414890000130981,0,0.35209519998170435,0.5203835000284016,,,48.0,51.0,53211,60.0,
-77,-77,-45,5,1,81,12,,,,,,,,,,,session,1226.7748002000153,156.0,2.0,72.0,0.016835936256000005,3,0.7035879000322893,0.8207800999516621,1,1.0031416000565514,1.247810500091873,1,0.3326371000148356,0.5345180000877008,,,54.0,72.0,53211,60.0,
77,-77,90,5,2,82,11,,,,,,,,,,,session,1235.6195167000405,150.0,2.0,72.0,0.016835936256000005,2,1.004116499912925,1.2031783999409527,0,0.3386721999850124,0.504565899958834,0,0.38395090005360544,0.534194799955003,,,57.0,66.0,53211,60.0,
77,77,90,5,3,83,3,,,,,,,,,,,session,1243.8530180000234,144.0,2.0,72.0,0.016835936256000005,5,0.5899056999478489,0.6908564999466762,6,0.4580894000828266,0.5755978000815958,1,0.8540319000603631,0.987385299988091,,,54.0,48.0,53211,60.0,
77,-77,-45,5,4,84,8,,,,,,,,,,,session,1251.642392000067,168.0,2.0,72.0,0.016835936256000005,4,0.6223755000391975,0.8012482000049204,1,0.8185774999437854,0.9685491999844089,1,0.3144871999975294,0.4809297000756487,,,69.0,69.0,53211,60.0,
77,77,45,5,5,85,2,,,,,,,,,,,session,1260.7179423000198,180.0,2.0,72.0,0.016835936256000005,2,1.2015552000375465,1.3523554999846965,0,1.1177331999642774,1.267878699931316,0,0.39991459995508194,0.5485722000012174,,,54.0,66.0,53211,60.0,
-77,77,0,5,6,86,5,,,,,,,,,,,session,1270.354260800057,168.0,2.0,72.0,0.016835936256000005,2,0.633476399932988,0.7833454000065103,0,0.3360880999825895,0.5204039999516681,6,0.6282322000479326,0.7621001000516117,,,60.0,66.0,53211,60.0,
-77,-77,0,5,7,87,13,,,,,,,,,,,session,1278.7842531000497,132.0,2.0,72.0,0.016835936256000005,3,0.9168523999396712,1.0501739999745041,0,0.3513721999479458,0.5001729999203235,6,1.103268500068225,1.1866104000946507,,,72.0,54.0,53211,60.0,
-77,77,90,5,8,88,7,,,,,,,,,,,session,1287.3702333000256,156.0,2.0,72.0,0.016835936256000005,2,1.1571398000232875,1.3572379000252113,0,0.3390181999420747,0.47169979999307543,0,0.3500622999854386,0.5166309999767691,,,51.0,51.0,53211,60.0,
-77,-77,90,5,9,89,15,,,,,,,,,,,session,1295.4598983000033,132.0,2.0,72.0,0.016835936256000005,3,0.5771640000166371,0.7326822999166325,6,0.43394669995177537,0.5643512000096962,6,0.4997587000252679,0.6167397000826895,,,66.0,69.0,53211,60.0,
-77,77,45,5,10,90,6,,,,,,,,,,,session,1303.3527355999686,132.0,2.0,72.0,0.016835936256000005,2,0.7040013999212533,0.8531546999001876,1,0.43857740005478263,0.6054118000902236,1,0.3842095999279991,0.567630699952133,,,72.0,69.0,53211,60.0,
77,-77,45,5,11,91,10,,,,,,,,,,,session,1311.3876209000591,138.0,2.0,72.0,0.016835936256000005,4,0.5058498999569565,0.6530361999757588,7,1.0066083000274375,1.1388039999874309,6,0.35681400005705655,0.48916390002705157,,,48.0,60.0,53211,60.0,
-77,77,-45,5,12,92,4,,,,,,,,,,,session,1319.2113648999948,168.0,2.0,72.0,0.016835936256000005,2,0.5981559000210837,0.685030399938114,1,0.45075269998051226,0.6007365999976173,6,0.32889230002183467,0.4456510000163689,,,60.0,72.0,53211,60.0,
-77,-77,45,5,13,93,14,,,,,,,,,,,session,1328.0852699000388,156.0,2.0,72.0,0.016835936256000005,3,0.6031467000721022,0.7532252999953926,7,1.4392511999467388,1.5385539999697357,6,1.3542437000432983,1.486831899965182,,,72.0,48.0,53211,60.0,
77,-77,0,5,14,94,9,,,,,,,,,,,session,1337.9077749999706,132.0,2.0,72.0,0.016835936256000005,4,0.518758499994874,0.6848224999848753,1,1.2697658999823034,1.4032105000223964,1,0.3330167999956757,0.5116909999633208,,,72.0,69.0,53211,60.0,
77,77,-45,5,15,95,0,,,,,,,,,,,session,1346.5021925000474,132.0,2.0,72.0,0.016835936256000005,2,0.6360939999576658,0.7851831000298262,0,0.5077191999880597,0.6724332000594586,0,0.36720990005414933,0.517384700011462,,,54.0,54.0,53211,60.0,
-77,-77,90,6,0,96,15,,,,,,,,,,,session,1353.938227100065,138.0,2.0,72.0,0.016835936256000005,3,0.5463954000733793,0.6800767000531778,6,0.339422499993816,0.5064061000011861,1,1.1975975999375805,1.3480565999634564,,,66.0,69.0,53211,60.0,
-77,-77,45,6,1,97,14,,,,,,,,,,,session,1362.460962500074,180.0,2.0,72.0,0.016835936256000005,3,0.38008849998004735,0.4927785999607295,7,1.1733327000401914,1.3042315000202507,6,0.27940050000324845,0.4460849999450147,,,69.0,57.0,53211,60.0,
77,-77,0,6,2,98,9,,,,,,,,,,,session,1371.7853338000132,144.0,2.0,72.0,0.016835936256000005,4,0.636837900034152,0.7870041000423953,0,1.1914724999805912,1.3249458000063896,1,1.1693231000099331,1.3028348999796435,,,54.0,60.0,53211,60.0,
-77,77,0,6,3,99,5,,,,,,,,,,,session,1380.9415750000626,126.0,2.0,72.0,0.016835936256000005,2,0.6369216999737546,0.7544261999428272,7,0.37173300003632903,0.505460900021717,1,0.43304529995657504,0.5661168999504298,,,63.0,69.0,53211,60.0,
-77,77,0,6,3,99,5,,,materials/instructions\12_break.png,1388.5559688999783,1413.7979883999797,0,25.10658899997361,25.24012329999823,0.025256199995055795,25.25065010006074,,,,,,,,,,,,,,,,,,,,53211,60.0,
77,-77,-45,6,4,100,8,,,,,,,,,,,session,1413.8171193000162,150.0,2.0,72.0,0.016835936256000005,4,0.7633909999858588,0.8940805000020191,1,0.9246137000154704,0.9904801999218762,1,1.5508309000870213,1.6166858000215143,,,63.0,60.0,53211,60.0,
77,77,45,6,5,101,2,,,,,,,,,,,session,1423.322836300009,162.0,2.0,72.0,0.016835936256000005,5,0.6017237000633031,0.7016936000436544,7,1.2566735999425873,1.3734562000026926,6,0.7968744999961928,0.8972924000117928,,,54.0,54.0,53211,60.0,
-77,-77,0,6,6,102,13,,,,,,,,,,,session,1432.239451100002,150.0,2.0,72.0,0.016835936256000005,3,0.6597568999277428,0.8262050999328494,0,1.2749429000541568,1.4065499000716954,1,0.3355368999764323,0.5024318000068888,,,57.0,66.0,53211,60.0,
77,-77,90,6,7,103,11,,,,,,,,,,,session,1441.4020269999746,150.0,2.0,72.0,0.016835936256000005,4,0.5533621000358835,0.703366200090386,6,0.9716471000574529,1.0891998000442982,6,1.2212811999488622,1.3371765000047162,,,57.0,60.0,53211,60.0,
77,77,-45,6,8,104,0,,,,,,,,,,,session,1450.4268099999754,162.0,2.0,72.0,0.016835936256000005,5,0.6611130000092089,0.7943199999863282,7,2.0813415999291465,2.166472499957308,1,0.41962320008315146,0.5858245000708848,,,69.0,60.0,53211,60.0,
-77,-77,-45,6,9,105,12,,,,,,,,,,,session,1460.573427699972,138.0,2.0,72.0,0.016835936256000005,3,0.703053200035356,0.8688110000221059,1,1.0557997999712825,1.206300999969244,1,1.0135928000090644,1.1463935000356287,,,72.0,54.0,53211,60.0,
-77,77,-45,6,10,106,4,,,,,,,,,,,session,1469.6423765000654,132.0,2.0,72.0,0.016835936256000005,2,0.7199232999701053,0.8865122999995947,1,0.6831263999920338,0.8163897999329492,6,0.6347127000335604,0.7682628000620753,,,66.0,66.0,53211,60.0,
77,77,90,6,11,107,3,,,,,,,,,,,session,1477.9522017000709,144.0,2.0,72.0,0.016835936256000005,5,0.5699020999018103,0.6698767999187112,6,0.41642440005671233,0.6000908999703825,6,0.39110929996240884,0.5073282999219373,,,48.0,63.0,53211,60.0,
77,77,0,6,12,108,1,,,,,,,,,,,session,1485.4875498000765,162.0,2.0,72.0,0.016835936256000005,2,0.8036175000015646,0.9537405000301078,0,0.4260277000721544,0.5917498000198975,0,0.3208660000236705,0.5019193000625819,,,48.0,54.0,53211,60.0,
77,-77,45,6,13,109,10,,,,,,,,,,,session,1493.3762202999787,168.0,2.0,72.0,0.016835936256000005,4,0.5608755999710411,0.6889993000077084,7,0.9408619999885559,1.0532791999867186,6,0.6793291999492794,0.7818654999136925,,,54.0,48.0,53211,60.0,
-77,77,45,6,14,110,6,,,,,,,,,,,session,1501.8725732000312,144.0,2.0,72.0,0.016835936256000005,2,1.0032450000289828,1.1867790999822319,0,0.3581640000920743,0.4573637000285089,0,0.3522013999754563,0.4355245999759063,,,66.0,63.0,53211,60.0,
-77,77,90,6,15,111,7,,,,,,,,,,,session,1509.9401101999683,138.0,2.0,72.0,0.016835936256000005,2,0.6737200999632478,0.7549998000031337,6,0.5886942000361159,0.7236230999697,1,0.3851286000572145,0.5518230000743642,,,72.0,54.0,53211,60.0,
77,-77,-45,7,0,112,8,,,,,,,,,,,session,1517.810249299975,138.0,2.0,72.0,0.016835936256000005,2,1.3778224000707269,1.545364600024186,0,0.3715663000475615,0.5240155999781564,0,0.38299109996296465,0.5344755999976769,,,51.0,63.0,53211,60.0,
-77,-77,45,7,1,113,14,,,,,,,,,,,session,1526.5216608999763,174.0,2.0,72.0,0.016835936256000005,5,1.0186733999289572,1.1187881999649107,7,0.8741124999942258,0.974173599970527,1,0.3219682000344619,0.4866189999738708,,,60.0,60.0,53211,60.0,
-77,77,90,7,2,114,7,,,,,,,,,,,session,1535.4411364999833,126.0,2.0,72.0,0.016835936256000005,4,1.155045000021346,1.3213352999882773,0,0.4646777000743896,0.5917849000543356,1,0.2967097000218928,0.4296545999823138,,,66.0,57.0,53211,60.0,
77,-77,0,7,3,115,9,,,,,,,,,,,session,1543.3895251000067,174.0,2.0,72.0,0.016835936256000005,4,0.41868580004666,0.6200378000503406,0,0.35804140008985996,0.504923400003463,6,0.3190580999944359,0.48816720000468194,,,57.0,69.0,53211,60.0,
-77,77,0,7,4,116,5,,,,,,,,,,,session,1551.5888814000646,168.0,2.0,72.0,0.016835936256000005,2,1.0368527000537142,1.2037183999782428,0,0.3478597999783233,0.5146772000007331,0,0.3519642000319436,0.5028410999802873,,,63.0,57.0,53211,60.0,
77,-77,45,7,5,117,10,,,,,,,,,,,session,1560.0458770999685,168.0,2.0,72.0,0.016835936256000005,5,1.0138075000140816,1.1423850000137463,1,0.9540284000104293,1.087447899975814,1,0.3035886000143364,0.48711730004288256,,,66.0,60.0,53211,60.0,
77,77,0,7,6,118,1,,,,,,,,,,,session,1569.1234532999806,138.0,2.0,72.0,0.016835936256000005,5,0.6503575999522582,0.8031772000249475,0,1.1057450000662357,1.256483000004664,6,1.2355580000439659,1.3205432000104338,,,57.0,60.0,53211,60.0,
-77,-77,-45,7,7,119,12,,,,,,,,,,,session,1578.2087811999954,180.0,2.0,72.0,0.016835936256000005,3,0.4701628000475466,0.6031500999815762,1,1.186497800052166,1.3544714000308886,1,0.8099104999564588,0.9817327000200748,,,54.0,63.0,53211,60.0,
-77,-77,-45,7,7,119,12,,,materials/instructions\12_break.png,1587.572618599981,1602.4225107000675,0,14.697835800005123,14.847804000019096,0.016097999992780387,14.855811099987477,,,,,,,,,,,,,,,,,,,,53211,60.0,
-77,77,-45,7,8,120,4,,,,,,,,,,,session,1602.438121000072,162.0,2.0,72.0,0.016835936256000005,2,0.5831430000253022,0.7348227000329643,1,0.8038496999070048,0.9539454999612644,6,0.6819748000707477,0.8140293000033125,,,66.0,48.0,53211,60.0,
-77,-77,90,7,9,121,15,,,,,,,,,,,session,1610.9861807000125,162.0,2.0,72.0,0.016835936256000005,3,0.4023381000151858,0.548988200025633,6,0.7429304999532178,0.8923017999622971,1,0.6346719999564812,0.7514660999877378,,,57.0,63.0,53211,60.0,
-77,77,45,7,10,122,6,,,,,,,,,,,session,1619.3566807999741,174.0,2.0,72.0,0.016835936256000005,2,0.6369102000026032,0.8045766000868753,7,0.8924768000142649,1.0230315000517294,1,1.5037532000569627,1.6538727000588551,,,66.0,48.0,53211,60.0,
77,77,90,7,11,123,3,,,,,,,,,,,session,1629.0625916999998,174.0,2.0,72.0,0.016835936256000005,5,3.865009800065309,3.979561200016178,1,1.199320999905467,1.3495762000093237,0,2.0406862000236288,2.2572782000061125,,,60.0,69.0,53211,60.0,
77,-77,90,7,12,124,11,,,,,,,,,,,session,1643.778805000009,156.0,2.0,72.0,0.016835936256000005,4,0.7842919999966398,0.9178705000085756,1,1.0741048998897895,1.2417053999379277,1,0.914712299942039,1.0813605999574065,,,69.0,57.0,53211,60.0,
77,77,-45,7,13,125,0,,,,,,,,,,,session,1653.1740163000068,144.0,2.0,72.0,0.016835936256000005,5,0.6493299999274313,0.7800485999323428,1,1.1535854000831023,1.369673200068064,1,0.304215700016357,0.48827349999919534,,,57.0,69.0,53211,60.0,
77,77,45,7,14,126,2,,,,,,,,,,,session,1662.1380941000534,144.0,2.0,72.0,0.016835936256000005,5,0.5723551999544725,0.7057733000256121,7,1.0434802999952808,1.2250057000201195,1,0.505143899936229,0.6552810999564826,,,66.0,63.0,53211,60.0,
-77,-77,0,7,15,127,13,,,,,,,,,,,session,1670.7272976000095,168.0,2.0,72.0,0.016835936256000005,3,0.7177330000558868,0.9166123000904918,1,0.36885120009537786,0.5490591000998393,1,0.5004675999516621,0.6998836999991909,,,69.0,57.0,53211,60.0,
77,77,90,8,0,128,3,,,,,,,,,,,session,1679.390499799978,174.0,2.0,72.0,0.016835936256000005,5,0.36800800007767975,0.5168751000892371,6,0.9709380000131205,1.087525499984622,1,0.5381812999257818,0.6745047000003979,,,66.0,69.0,53211,60.0,
-77,-77,-45,8,1,129,12,,,,,,,,,,,session,1688.2605236000381,126.0,2.0,72.0,0.016835936256000005,3,0.6055680999998003,0.7717953999526799,1,1.021766799967736,1.1561135998927057,1,0.38230159995146096,0.5324164999183267,,,54.0,60.0,53211,60.0,
77,77,45,8,2,130,2,,,,,,,,,,,session,1696.1453250000486,132.0,2.0,72.0,0.016835936256000005,3,0.8947819999884814,1.0448339999420568,1,0.35083189990837127,0.5350354999536648,1,0.35007199994288385,0.5674148999387398,,,69.0,63.0,53211,60.0,
-77,-77,90,8,3,131,15,,,,,,,,,,,session,1704.489543100004,180.0,2.0,72.0,0.016835936256000005,3,1.3599211000837386,1.5430935000767931,0,0.4545306999934837,0.7401244000066072,1,0.3145746999653056,0.4991529999533668,,,60.0,48.0,53211,60.0,
77,-77,45,8,4,132,10,,,,,,,,,,,session,1713.5099612000631,174.0,2.0,72.0,0.016835936256000005,4,0.6025299000320956,0.7526016000192612,7,0.9345899999607354,1.0678515000035986,6,0.2957530999556184,0.4319678000174463,,,48.0,57.0,53211,60.0,
-77,-77,45,8,5,133,14,,,,,,,,,,,session,1721.8752545000752,132.0,2.0,72.0,0.016835936256000005,2,1.9529114000033587,2.086340400041081,0,0.036172399995848536,0.22091879998333752,0,0.3703082000138238,0.6214361999882385,,,66.0,66.0,53211,60.0,
77,77,-45,8,6,134,0,,,,,,,,,,,session,1730.6425316999666,132.0,2.0,72.0,0.016835936256000005,2,1.119418799993582,1.2527687000110745,0,0.5192287999670953,0.6860962000209838,0,0.3555149999447167,0.503601299948059,,,54.0,66.0,53211,60.0,
77,-77,90,8,7,135,11,,,,,,,,,,,session,1738.7301106000086,150.0,2.0,72.0,0.016835936256000005,4,0.6259730999590829,0.8241457999683917,6,0.8029992999508977,0.9225565999513492,1,0.7956449000630528,0.9624127000570297,,,63.0,48.0,53211,60.0,
77,-77,-45,8,8,136,8,,,,,,,,,,,session,1747.6551784999901,162.0,2.0,72.0,0.016835936256000005,4,0.5196838999399915,0.6863962999777868,1,2.8427493000635877,3.0094827000284567,1,0.3552639000117779,0.5220887999748811,,,63.0,63.0,53211,60.0,
-77,77,-45,8,9,137,4,,,,,,,,,,,session,1758.11046970007,174.0,2.0,72.0,0.016835936256000005,2,0.6914527000626549,0.8144511999562383,1,0.852229000069201,1.0020590000785887,6,1.3026272000279278,1.385634700069204,,,54.0,72.0,53211,60.0,
-77,-77,0,8,10,138,13,,,,,,,,,,,session,1767.7743933000602,138.0,2.0,72.0,0.016835936256000005,3,0.6670945000369102,0.8520264000399038,1,1.2562734000384808,1.3731268000556156,1,0.5007855999283493,0.6509122999850661,,,63.0,48.0,53211,60.0,
-77,77,45,8,11,139,6,,,,,,,,,,,session,1776.2410531999776,156.0,2.0,72.0,0.016835936256000005,2,0.638391499989666,0.8044152000220492,1,0.8549049000721425,0.9881086000241339,1,0.5528365999925882,0.7197244999697432,,,54.0,72.0,53211,60.0,
-77,77,45,8,11,139,6,,,materials/instructions\12_break.png,1784.924733699998,1786.5194814000279,0,1.44299220002722,1.5929652999620885,0.024509099894203246,1.6005957999732345,,,,,,,,,,,,,,,,,,,,53211,60.0,
-77,77,0,8,12,140,5,,,,,,,,,,,session,1786.5359032000415,156.0,2.0,72.0,0.016835936256000005,2,0.8626510000322014,1.0468337000347674,0,0.4468751000240445,0.6294330999953672,0,0.4015448000282049,0.5849522999487817,,,48.0,69.0,53211,60.0,
-77,77,90,8,13,141,7,,,,,,,,,,,session,1795.0227476999862,162.0,2.0,72.0,0.016835936256000005,2,1.0040163000812754,1.1545359999872744,1,0.7730568000115454,0.9389994000084698,1,0.3545845999615267,0.5046097000595182,,,54.0,54.0,53211,60.0,
77,-77,0,8,14,142,9,,,,,,,,,,,session,1803.5615582000464,162.0,2.0,72.0,0.016835936256000005,4,0.709173999959603,0.8643236999632791,0,1.052484599989839,1.2475669999839738,1,0.6170964000048116,0.8005137000000104,,,69.0,63.0,53211,60.0,
77,77,0,8,15,143,1,,,,,,,,,,,session,1812.8880654000677,156.0,2.0,72.0,0.016835936256000005,5,0.9858046000590548,1.1346312999958172,6,0.8723173000616953,0.9724961000028998,1,0.33657260006293654,0.4866446000523865,,,54.0,48.0,53211,60.0,
77,-77,-45,9,0,144,8,,,,,,,,,,,session,1821.2263075000374,174.0,2.0,72.0,0.016835936256000005,4,0.7344178999774158,0.8875617999583483,1,0.8694967000046745,1.020128200063482,6,0.6930272999452427,0.7815908000338823,,,66.0,57.0,53211,60.0,
-77,-77,0,9,1,145,13,,,,,,,,,,,session,1830.308446799987,174.0,2.0,72.0,0.016835936256000005,3,0.6496282999869436,0.8319819999160245,0,0.351553599932231,0.5345498999813572,1,0.402107400004752,0.5689153999555856,,,69.0,66.0,53211,60.0,
-77,77,45,9,2,146,6,,,,,,,,,,,session,1839.1563661000691,126.0,2.0,72.0,0.016835936256000005,2,1.6584190999856219,1.7933106999844313,1,1.1888693000655621,1.307635399978608,1,0.38617069995962083,0.5196111999684945,,,66.0,57.0,53211,60.0,
-77,77,-45,9,3,147,4,,,,,,,,,,,session,1848.3626022000099,180.0,2.0,72.0,0.016835936256000005,2,0.2999119999585673,0.4790509999729693,1,0.5324644000502303,0.7357903000665829,1,1.0213700999738649,1.1729203999275342,,,60.0,66.0,53211,60.0,
77,77,45,9,4,148,2,,,,,,,,,,,session,1857.7563727999805,138.0,2.0,72.0,0.016835936256000005,5,0.3789996999548748,0.5291577000170946,7,1.806449299911037,1.8896029000170529,1,0.5528356999857351,0.7042178000556305,,,57.0,69.0,53211,60.0,
77,77,0,9,5,149,1,,,,,,,,,,,session,1866.7276217000326,126.0,2.0,72.0,0.016835936256000005,5,0.5509353000670671,0.684397800010629,0,0.6773487000027671,0.7775927000911906,1,0.30948149994947016,0.4649877999909222,,,63.0,57.0,53211,60.0,
-77,-77,-45,9,6,150,12,,,,,,,,,,,session,1874.1919869000558,174.0,2.0,72.0,0.016835936256000005,3,0.5229186000069603,0.722962599946186,1,1.0873375999508426,1.2039227000204846,1,0.990174499922432,1.0917746999766678,,,48.0,66.0,53211,60.0,
77,-77,45,9,7,151,10,,,,,,,,,,,session,1883.841838799999,156.0,2.0,72.0,0.016835936256000005,4,0.4868049999931827,0.6358232999918982,7,0.9396724000107497,1.0563902999274433,6,1.4191181999631226,1.5535768000409007,,,72.0,57.0,53211,60.0,
-77,-77,90,9,8,152,15,,,,,,,,,,,session,1893.2808072000043,138.0,2.0,72.0,0.016835936256000005,3,0.5843331998912618,0.7643655999563634,6,0.7736564000369981,0.941118499962613,6,0.2997129999566823,0.4996897999662906,,,69.0,66.0,53211,60.0,
77,77,-45,9,9,153,0,,,,,,,,,,,session,1901.9216186000267,126.0,2.0,72.0,0.016835936256000005,5,0.7167707000626251,0.8668591000605375,1,1.4382777999853715,1.605062699993141,6,0.7672913999995217,0.8840501999948174,,,48.0,48.0,53211,60.0,
77,-77,90,9,10,154,11,,,,,,,,,,,session,1910.4264426999725,180.0,2.0,72.0,0.016835936256000005,2,0.7847898999461904,0.9348278999095783,0,0.5229657999007031,0.6396194999106228,0,0.0110244998941198,0.2646258999593556,,,48.0,63.0,53211,60.0,
-77,77,90,9,11,155,7,,,,,,,,,,,session,1918.5910495000426,144.0,2.0,72.0,0.016835936256000005,2,0.6497034999774769,0.7996807999443263,6,0.34240580000914633,0.5425248000537977,6,0.3337693000212312,0.5337121000047773,,,63.0,51.0,53211,60.0,
-77,-77,45,9,12,156,14,,,,,,,,,,,session,1926.5738316000206,174.0,2.0,72.0,0.016835936256000005,3,0.569854800007306,0.7533129999646917,7,1.2170993000036106,1.3356534999329597,1,0.31837539991829544,0.4522325999569148,,,54.0,69.0,53211,60.0,
77,77,90,9,13,157,3,,,,,,,,,,,session,1935.5126297000097,126.0,2.0,72.0,0.016835936256000005,5,1.2745993999997154,1.408411500044167,1,0.3645951999351382,0.506142699974589,1,0.38022649998310953,0.533675399958156,,,69.0,48.0,53211,60.0,
77,-77,0,9,14,158,9,,,,,,,,,,,session,1943.4600434000604,168.0,2.0,72.0,0.016835936256000005,4,0.5249395000282675,0.6762254000641406,0,0.85054020001553,1.033005699981004,1,1.1719009000808,1.2720603999914601,,,57.0,57.0,53211,60.0,
-77,77,0,9,15,159,5,,,,,,,,,,,session,1952.609664299991,162.0,2.0,72.0,0.016835936256000005,2,1.0526029999600723,1.1880879000527784,0,0.6040117999073118,0.7902188999578357,0,0.3911870999727398,0.5737636999692768,,,51.0,66.0,53211,60.0,
-77,77,0,9,15,159,5,,,materials/instructions\12_break.png,1961.2784641999751,1967.9541790999938,0,6.606920899939723,6.673704299959354,0.021207400015555322,6.681190200033598,,,,,,,,,,,,,,,,,,,,53211,60.0,
77,77,0,10,0,160,1,,,,,,,,,,,session,1967.9701919000363,156.0,2.0,72.0,0.016835936256000005,5,0.477293600095436,0.561702600098215,0,1.5076029000338167,1.5910457000136375,6,0.320283200009726,0.43696199997793883,,,51.0,60.0,53211,60.0,
-77,77,-45,10,1,161,4,,,,,,,,,,,session,1976.4598771000747,126.0,2.0,72.0,0.016835936256000005,2,0.7878710000077263,0.8714161000680178,1,0.8736901000374928,0.9721525999484584,1,0.49311679997481406,0.5990468000527471,,,57.0,57.0,53211,60.0,
77,-77,90,10,2,162,11,,,,,,,,,,,session,1984.3426395000424,144.0,2.0,72.0,0.016835936256000005,4,0.31696750002447516,0.465299200033769,6,1.0879616000456735,1.1883225000929087,1,0.9822969000088051,1.049316499964334,,,54.0,69.0,53211,60.0,
-77,77,0,10,3,163,5,,,,,,,,,,,session,1993.4413663999876,138.0,2.0,72.0,0.016835936256000005,5,1.4701403999933973,1.6036992999725044,6,1.0422956999391317,1.1590665999101475,0,1.0210658999858424,1.1063145999796689,,,48.0,72.0,53211,60.0,
77,77,45,10,4,164,2,,,,,,,,,,,session,2003.0491317000706,138.0,2.0,72.0,0.016835936256000005,5,0.6130656999303028,0.7248916999669746,7,0.8426091999281198,0.9926120999734849,6,0.31751000008080155,0.4704422000795603,,,72.0,66.0,53211,60.0,
77,-77,-45,10,5,165,8,,,,,,,,,,,session,2011.5247891000472,126.0,2.0,72.0,0.016835936256000005,4,0.7202169999945909,0.8202795999823138,1,0.5330969999777153,0.6684622999746352,1,0.3210583000909537,0.471575100091286,,,57.0,69.0,53211,60.0,
77,77,90,10,6,166,3,,,,,,,,,,,session,2019.126152700046,144.0,2.0,72.0,0.016835936256000005,5,0.8156815000111237,0.9670083000091836,6,0.2930571000324562,0.4590887000085786,1,0.3524431000696495,0.4877351999748498,,,60.0,51.0,53211,60.0,
77,-77,0,10,7,167,9,,,,,,,,,,,session,2026.7341203000396,174.0,2.0,72.0,0.016835936256000005,4,0.5987240000395104,0.7490369000006467,0,1.0684626000002027,1.2018275000154972,1,0.9604125000769272,1.060488500050269,,,57.0,69.0,53211,60.0,
77,-77,45,10,8,168,10,,,,,,,,,,,session,2036.7591228999663,168.0,2.0,72.0,0.016835936256000005,4,0.5854322999948636,0.752329200040549,7,1.4107427999842912,1.544153800001368,1,1.4384673999156803,1.5386869999347255,,,69.0,54.0,53211,60.0,
-77,-77,-45,10,9,169,12,,,,,,,,,,,session,2046.8808918000432,144.0,2.0,72.0,0.016835936256000005,3,0.5931937999557704,0.7279814999783412,1,0.783277599955909,0.8703808999853209,6,0.767291700001806,0.8662291000364348,,,54.0,51.0,53211,60.0,
77,77,-45,10,10,170,0,,,,,,,,,,,session,2054.9904257999733,174.0,2.0,72.0,0.016835936256000005,2,1.0350955999456346,1.1684642999898642,0,0.47761049994733185,0.5450000000419095,0,0.43418859993107617,0.5175810999935493,,,60.0,48.0,53211,60.0,
-77,-77,90,10,11,171,15,,,,,,,,,,,session,2063.359317400027,150.0,2.0,72.0,0.016835936256000005,3,0.5897286999970675,0.7396388000342995,1,1.1561360000632703,1.3054941000882536,1,0.5344944000244141,0.6520218999357894,,,66.0,72.0,53211,60.0,
-77,-77,0,10,12,172,13,,,,,,,,,,,session,2072.299278200022,150.0,2.0,72.0,0.016835936256000005,3,0.5971934999106452,0.7471224999753758,0,0.8355922000482678,0.9017443000338972,1,1.3670717999339104,1.4507276999065652,,,66.0,72.0,53211,60.0,
-77,-77,45,10,13,173,14,,,,,,,,,,,session,2082.2246973,180.0,2.0,72.0,0.016835936256000005,3,0.7027940000407398,0.8529143999330699,7,0.8386788000352681,0.989556199987419,1,1.0715139999520034,1.1715095000108704,,,72.0,54.0,53211,60.0,
-77,77,45,10,14,174,6,,,,,,,,,,,session,2091.7824686999666,138.0,2.0,72.0,0.016835936256000005,2,1.3628591001033783,1.4488535000709817,0,0.38785180007107556,0.4719508000416681,0,0.3338021000381559,0.4172354999464005,,,69.0,51.0,53211,60.0,
-77,77,90,10,15,175,7,,,,,,,,,,,session,2100.206380699994,180.0,2.0,72.0,0.016835936256000005,2,0.9595656000310555,1.076221500057727,0,0.6214480000780895,0.7050429000519216,0,0.3216030999319628,0.4049471999751404,,,72.0,69.0,53211,60.0,
-77,-77,90,11,0,176,15,,,,,,,,,,,session,2109.2109057999915,126.0,2.0,72.0,0.016835936256000005,3,0.5693671000190079,0.7026006000814959,6,0.5236223998945206,0.6392107999417931,6,0.40857759991195053,0.527994200005196,,,57.0,60.0,53211,60.0,
77,-77,90,11,1,177,11,,,,,,,,,,,session,2116.5893220000435,126.0,2.0,72.0,0.016835936256000005,4,0.48005810007452965,0.5802319999784231,6,0.47223119996488094,0.5699005000060424,1,0.6971656000241637,0.7961215000832453,,,60.0,72.0,53211,60.0,
77,77,90,11,2,178,3,,,,,,,,,,,session,2124.7752243999857,150.0,2.0,72.0,0.016835936256000005,3,1.8343438999727368,1.9677439999068156,6,0.923994000069797,1.0068035000003874,1,0.4025430000619963,0.5025418000295758,,,72.0,51.0,53211,60.0,
77,-77,45,11,3,179,10,,,,,,,,,,,session,2134.2464185999706,180.0,2.0,72.0,0.016835936256000005,4,0.38834980002138764,0.5329023000085726,7,0.8408887999830768,0.9534669000422582,6,0.6162453999277204,0.6993828999111429,,,48.0,57.0,53211,60.0,
77,-77,45,11,3,179,10,,,materials/instructions\12_break.png,2142.8228774999734,2154.6107317999704,0,11.618803499964997,11.785856700036675,0.019134800066240132,11.793473200057633,,,,,,,,,,,,,,,,,,,,53211,60.0,
-77,77,0,11,4,180,5,,,,,,,,,,,session,2154.62654680002,126.0,2.0,72.0,0.016835936256000005,2,0.6779484000289813,0.7946530000772327,0,0.4401380999479443,0.6248617999954149,1,0.3332578999688849,0.5117845999775454,,,72.0,48.0,53211,60.0,
-77,77,90,11,5,181,7,,,,,,,,,,,session,2162.1886785000097,150.0,2.0,72.0,0.016835936256000005,2,0.45294840005226433,0.6038862999994308,6,0.6422872000839561,0.7260316000320017,1,0.2886114999419078,0.4220095999771729,,,63.0,60.0,53211,60.0,
77,77,45,11,6,182,2,,,,,,,,,,,session,2170.1738004999934,150.0,2.0,72.0,0.016835936256000005,5,0.8536023000488058,0.953512700041756,7,1.2918803999200463,1.4085221999557689,1,0.35418749996460974,0.47085829998832196,,,57.0,54.0,53211,60.0,
-77,77,-45,11,7,183,4,,,,,,,,,,,session,2178.796499100048,132.0,2.0,72.0,0.016835936256000005,2,0.8632337000453845,0.9963964000344276,1,0.3638124999124557,0.5451455999864265,1,0.9373577999649569,1.087351099937223,,,54.0,48.0,53211,60.0,
77,-77,0,11,8,184,9,,,,,,,,,,,session,2186.794457699987,138.0,2.0,72.0,0.016835936256000005,4,0.6401937999762595,0.7901916999835521,0,1.052798599936068,1.2194937999593094,1,0.770637399982661,0.903286499902606,,,51.0,57.0,53211,60.0,
-77,-77,45,11,9,185,14,,,,,,,,,,,session,2195.25962310005,150.0,2.0,72.0,0.016835936256000005,3,0.7204816999146715,0.9206773999612778,1,0.5399818998994306,0.6899955999106169,6,0.852951200096868,1.0030537000857294,,,60.0,60.0,53211,60.0,
-77,77,45,11,10,186,6,,,,,,,,,,,session,2203.833840599982,138.0,2.0,72.0,0.016835936256000005,2,0.8818395999260247,0.9978641000343487,1,1.2406129000009969,1.4239306999370456,1,0.307067200075835,0.48998569999821484,,,57.0,51.0,53211,60.0,
77,77,0,11,11,187,1,,,,,,,,,,,session,2212.977745900047,150.0,2.0,72.0,0.016835936256000005,2,1.0548371999757364,1.221654299995862,0,0.43836649996228516,0.6051427000202239,0,0.3691192999249324,0.5358409999171272,,,66.0,72.0,53211,60.0,
77,77,-45,11,12,188,0,,,,,,,,,,,session,2221.600210500066,156.0,2.0,72.0,0.016835936256000005,5,0.27204700000584126,0.455048399977386,1,0.9638572999974713,1.112871800083667,6,0.5988905999111012,0.7007294999202713,,,69.0,51.0,53211,60.0,
-77,-77,0,11,13,189,13,,,,,,,,,,,session,2229.889748000074,162.0,2.0,72.0,0.016835936256000005,3,0.49796960002277046,0.7139368000207469,0,0.8553203999763355,0.9553238999797031,6,0.8051039999118075,0.8718449999578297,,,48.0,54.0,53211,60.0,
-77,-77,-45,11,14,190,12,,,,,,,,,,,session,2238.309005700052,180.0,2.0,72.0,0.016835936256000005,3,0.739953099982813,0.8881670999107882,1,0.3904617000371218,0.5740907000144944,1,0.37346760008949786,0.5565190000925213,,,57.0,48.0,53211,60.0,
77,-77,-45,11,15,191,8,,,,,,,,,,,session,2246.516255100025,174.0,2.0,72.0,0.016835936256000005,4,0.9130619999486953,1.0630989000201225,1,0.3710797999519855,0.5709468999411911,1,0.3187791999662295,0.4534707000711933,,,60.0,57.0,53211,60.0,
-77,-77,0,12,0,192,13,,,,,,,,,,,session,2255.491694999975,180.0,2.0,72.0,0.016835936256000005,3,0.7669814999680966,0.9170001000165939,0,0.4387863000156358,0.605599100003019,1,1.1211421999614686,1.236728599993512,,,57.0,57.0,53211,60.0,
77,77,-45,12,1,193,0,,,,,,,,,,,session,2264.5954024000093,150.0,2.0,72.0,0.016835936256000005,5,0.13609529996756464,0.3196346000768244,1,1.0871067999396473,1.2450934000080451,6,2.0514279999770224,2.1386261000297964,,,72.0,60.0,53211,60.0,
77,77,90,12,2,194,3,,,,,,,,,,,session,2274.4286153999856,126.0,2.0,72.0,0.016835936256000005,5,0.672546699992381,0.8061278999084607,6,1.189640700002201,1.3397229999536648,1,0.9537581000477076,1.08693560003303,,,63.0,69.0,53211,60.0,
-77,77,-45,12,3,195,4,,,,,,,,,,,session,2283.409677700023,150.0,2.0,72.0,0.016835936256000005,2,0.8052192000905052,0.9573890001047403,0,0.4090137999737635,0.6091159000061452,0,0.30544030002783984,0.5066312000853941,,,51.0,51.0,53211,60.0,
77,-77,-45,12,4,196,8,,,,,,,,,,,session,2291.116113599972,174.0,2.0,72.0,0.016835936256000005,4,0.46906799997668713,0.6289188999217004,1,0.7567401999840513,0.9067314999410883,7,0.5860783999087289,0.6685098999878392,,,51.0,51.0,53211,60.0,
77,-77,0,12,5,197,9,,,,,,,,,,,session,2299.8570906000677,162.0,2.0,72.0,0.016835936256000005,2,1.5929526999825612,1.758513699984178,0,0.2075196000514552,0.45655500004068017,0,0.31996439991053194,0.4875082999933511,,,48.0,48.0,53211,60.0,
-77,-77,-45,12,6,198,12,,,,,,,,,,,session,2308.312739599962,144.0,2.0,72.0,0.016835936256000005,2,1.989220599993132,2.1217371000675485,0,1.6040876999031752,1.7787930999184027,0,0.3261376000009477,0.4595491000218317,,,66.0,66.0,53211,60.0,
-77,77,0,12,7,199,5,,,,,,,,,,,session,2318.7078255000524,174.0,2.0,72.0,0.016835936256000005,2,0.5678693000227213,0.7177812999580055,0,0.385586200049147,0.5679649000521749,6,0.7155638999538496,0.8495929000200704,,,57.0,51.0,53211,60.0,
-77,77,0,12,7,199,5,,,materials/instructions\12_break.png,2327.037291100016,2334.1956866000546,0,7.089408500003628,7.156238199910149,0.023698700009845197,7.163919000071473,,,,,,,,,,,,,,,,,,,,53211,60.0,
77,-77,45,12,8,200,10,,,,,,,,,,,session,2334.210915300064,126.0,2.0,72.0,0.016835936256000005,4,0.6863104000221938,0.8010557000525296,1,1.1244320999830961,1.234758000005968,1,0.3326135999523103,0.44959970004856586,,,48.0,51.0,53211,60.0,
-77,-77,45,12,9,201,14,,,,,,,,,,,session,2341.9760126000037,168.0,2.0,72.0,0.016835936256000005,3,0.2543829999631271,0.37320190004538745,7,0.6066873000236228,0.6752542000031099,1,0.33444129989948124,0.4339168999576941,,,57.0,60.0,53211,60.0,
77,77,0,12,10,202,1,,,,,,,,,,,session,2349.643644900061,150.0,2.0,72.0,0.016835936256000005,5,0.6898795999586582,0.8066440999973565,0,1.0100662000477314,1.093326700036414,6,0.3949742999393493,0.47930070001166314,,,54.0,54.0,53211,60.0,
-77,77,90,12,11,203,7,,,,,,,,,,,session,2357.7503762000706,138.0,2.0,72.0,0.016835936256000005,2,0.728209700086154,0.8408369000535458,6,1.670910199987702,1.7704350999556482,1,0.40018009999766946,0.5328342999564484,,,60.0,51.0,53211,60.0,
77,77,45,12,12,204,2,,,,,,,,,,,session,2367.0747293999884,162.0,2.0,72.0,0.016835936256000005,5,0.4896120000630617,0.5908111000899225,7,1.1224341000197455,1.222593600046821,1,1.1694278999930248,1.2864276999607682,,,69.0,51.0,53211,60.0,
-77,77,45,12,13,205,6,,,,,,,,,,,session,2376.3171387000475,138.0,2.0,72.0,0.016835936256000005,2,0.5865402000490576,0.736680900095962,1,1.1142488999757916,1.2818737999768928,1,0.36974300001747906,0.5199002000736073,,,54.0,69.0,53211,60.0,
-77,-77,90,12,14,206,15,,,,,,,,,,,session,2384.6948324000696,144.0,2.0,72.0,0.016835936256000005,2,1.13631470000837,1.2706277000252157,0,1.1211255999514833,1.271944799926132,0,0.3192113999975845,0.4359054999658838,,,51.0,63.0,53211,60.0,
77,-77,90,12,15,207,11,,,,,,,,,,,session,2393.4262142999796,156.0,2.0,72.0,0.016835936256000005,4,0.4877319000661373,0.6530730000231415,6,0.6753458000021055,0.8247442999854684,1,1.070902599953115,1.2051740000024438,,,72.0,60.0,53211,60.0,
77,-77,0,13,0,208,9,,,,,,,,,,,session,2402.3512223999714,144.0,2.0,72.0,0.016835936256000005,4,0.4757431000471115,0.6758705000393093,1,0.7678528999676928,0.8849332999670878,1,1.1212850000010803,1.238046700018458,,,72.0,72.0,53211,60.0,
-77,-77,0,13,1,209,13,,,,,,,,,,,session,2411.943385599996,132.0,2.0,72.0,0.016835936256000005,3,0.6052659000270069,0.7558545999927446,0,0.8183716000057757,0.9537811999907717,6,0.9028866000007838,1.002750699990429,,,57.0,48.0,53211,60.0,
77,-77,90,13,2,210,11,,,,,,,,,,,session,2420.0304747000337,162.0,2.0,72.0,0.016835936256000005,4,0.7462240000022575,0.9120938000269234,6,0.6203658999875188,0.7869216999970376,1,0.6166769000701606,0.7166998999891803,,,63.0,51.0,53211,60.0,
-77,-77,90,13,3,211,15,,,,,,,,,,,session,2428.5097613000544,156.0,2.0,72.0,0.016835936256000005,3,0.11866300005931407,0.3185503000859171,1,0.38713669998105615,0.5538573999656364,1,0.4699176999274641,0.6192339999834076,,,48.0,48.0,53211,60.0,
77,77,-45,13,4,212,0,,,,,,,,,,,session,2435.65877129999,156.0,2.0,72.0,0.016835936256000005,5,0.5882440999848768,0.7203574000159279,1,1.8431918999413028,1.9443531000288203,1,0.2876461000414565,0.40437709994148463,,,66.0,72.0,53211,60.0,
77,77,45,13,5,213,2,,,,,,,,,,,session,2445.0661427000305,150.0,2.0,72.0,0.016835936256000005,5,0.5917583999689668,0.6965698999119923,7,0.40084659995045513,0.5479432999854907,6,0.33240449998993427,0.47011919994838536,,,48.0,72.0,53211,60.0,
-77,77,90,13,6,214,7,,,,,,,,,,,session,2453.0637824999867,138.0,2.0,72.0,0.016835936256000005,2,0.8930226999800652,1.0597789000021294,6,0.6918938000453636,0.8422025000909343,1,0.7171164000174031,0.8347539999522269,,,51.0,57.0,53211,60.0,
77,77,90,13,7,215,3,,,,,,,,,,,session,2461.346089400002,150.0,2.0,72.0,0.016835936256000005,5,0.587003399967216,0.7199075999669731,6,0.3411947999848053,0.4600211000069976,1,0.6216524000046775,0.7216680999845266,,,63.0,66.0,53211,60.0,
77,-77,-45,13,8,216,8,,,,,,,,,,,session,2469.336130800075,174.0,2.0,72.0,0.016835936256000005,2,0.6669649999821559,0.8002994999988005,0,0.4897253999952227,0.623775799991563,0,0.33518000005278736,0.519605900044553,,,48.0,60.0,53211,60.0,
-77,-77,-45,13,9,217,12,,,,,,,,,,,session,2477.992830800009,180.0,2.0,72.0,0.016835936256000005,3,0.6956466999836266,0.8616120000369847,1,0.9542458999203518,1.0709645999595523,1,0.38474559993483126,0.551317699952051,,,66.0,57.0,53211,60.0,
-77,77,45,13,10,218,6,,,,,,,,,,,session,2486.981097500073,162.0,2.0,72.0,0.016835936256000005,2,0.7040528999641538,0.8216009999159724,1,0.6877338000340387,0.8214458000147715,1,0.3176831000018865,0.4485518999863416,,,69.0,51.0,53211,60.0,
77,-77,45,13,11,219,10,,,,,,,,,,,session,2495.2298307999736,150.0,2.0,72.0,0.016835936256000005,2,1.1009317999705672,1.1992960000643507,0,0.5728932999772951,0.722302500042133,0,0.4679903999203816,0.6356641999445856,,,72.0,60.0,53211,60.0,
77,-77,45,13,11,219,10,,,materials/instructions\12_break.png,2503.971755400067,2508.678309699986,0,4.554303099983372,4.704383900039829,0.023613200057297945,4.712215700070374,,,,,,,,,,,,,,,,,,,,53211,60.0,
-77,77,0,13,12,220,5,,,,,,,,,,,session,2508.693587800022,144.0,2.0,72.0,0.016835936256000005,2,0.6637206000741571,0.7803837000392377,0,0.3466013999423012,0.4963375999359414,1,0.6802999000065029,0.8303884000051767,,,54.0,63.0,53211,60.0,
-77,77,-45,13,13,221,4,,,,,,,,,,,session,2516.60716949997,126.0,2.0,72.0,0.016835936256000005,5,1.4717905999859795,1.57209969998803,6,0.7031398999970406,0.8208507000235841,1,0.3211684999987483,0.4543236999306828,,,48.0,51.0,53211,60.0,
77,77,0,13,14,222,1,,,,,,,,,,,session,2524.6608865000308,150.0,2.0,72.0,0.016835936256000005,5,0.6531072999350727,0.7531121999491006,0,0.7730249000014737,0.8565083999419585,6,0.7587675999384373,0.8568751999409869,,,66.0,72.0,53211,60.0,
-77,-77,45,13,15,223,14,,,,,,,,,,,session,2533.367876000004,156.0,2.0,72.0,0.016835936256000005,3,0.8635310999816284,1.0135527999373153,7,0.9832565999822691,1.0970653999829665,1,1.0157702999422327,1.0990811999654397,,,54.0,57.0,53211,60.0,
77,77,0,14,0,224,1,,,,,,,,,,,session,2542.842303900048,138.0,2.0,72.0,0.016835936256000005,5,0.6173622999340296,0.7362496999558061,0,1.089589299983345,1.1730711999116465,6,0.7214631999377161,0.8363757999613881,,,69.0,66.0,53211,60.0,
-77,-77,90,14,1,225,15,,,,,,,,,,,session,2551.5810866999673,126.0,2.0,72.0,0.016835936256000005,2,1.1035946999909356,1.2036946000298485,0,0.31840059999376535,0.4501988000702113,0,0.2676321000326425,0.3795942000579089,,,72.0,72.0,53211,60.0,
77,-77,45,14,2,226,10,,,,,,,,,,,session,2559.5741140000755,180.0,2.0,72.0,0.016835936256000005,4,0.6503042000113055,0.7496523000299931,7,1.0251667000120506,1.1243994999676943,1,1.0364679000340402,1.136527800001204,,,72.0,57.0,53211,60.0,
77,77,90,14,3,227,3,,,,,,,,,,,session,2569.477372399997,144.0,2.0,72.0,0.016835936256000005,5,0.6517806999618188,0.7871593999443576,6,0.6731068999506533,0.806770300026983,1,0.7038776000263169,0.8042292000027373,,,54.0,66.0,53211,60.0,
77,77,-45,14,4,228,0,,,,,,,,,,,session,2577.7172710000305,174.0,2.0,72.0,0.016835936256000005,5,0.29506639996543527,0.42850149993319064,1,1.2706910000415519,1.3568974999943748,1,0.9858770000282675,1.084911199985072,,,51.0,57.0,53211,60.0,
-77,-77,45,14,5,229,14,,,,,,,,,,,session,2587.2610603000503,150.0,2.0,72.0,0.016835936256000005,3,0.7548166000051424,0.9042225000448525,1,1.6061447999672964,1.705907900002785,1,0.42075380007736385,0.5216331999981776,,,66.0,60.0,53211,60.0,
-77,77,0,14,6,230,5,,,,,,,,,,,session,2596.4319507000037,168.0,2.0,72.0,0.016835936256000005,2,0.9388781000161543,1.0886834999546409,0,0.786598899983801,0.8976329000433907,1,1.0338724999455735,1.123270499985665,,,66.0,54.0,53211,60.0,
77,-77,-45,14,7,231,8,,,,,,,,,,,session,2605.780263200053,144.0,2.0,72.0,0.016835936256000005,2,1.255295200040564,1.355399899999611,0,1.024070099927485,1.1237104999599978,0,0.2828747999155894,0.44855219998862594,,,54.0,69.0,53211,60.0,
-77,-77,-45,14,8,232,12,,,,,,,,,,,session,2614.6115227000555,138.0,2.0,72.0,0.016835936256000005,3,0.6731134000001475,0.8064980999333784,1,1.1748745000222698,1.274795399978757,1,0.30607960000634193,0.45515279995743185,,,57.0,48.0,53211,60.0,
77,77,45,14,9,233,2,,,,,,,,,,,session,2622.6342415000545,168.0,2.0,72.0,0.016835936256000005,5,0.012443799991160631,0.014698900049552321,7,0.8053459000075236,0.9543170999968424,6,0.7676853999728337,0.8852503000525758,,,51.0,72.0,53211,60.0,
-77,-77,0,14,10,234,13,,,,,,,,,,,session,2631.3603713000193,132.0,2.0,72.0,0.016835936256000005,3,0.5511998999863863,0.751391900004819,0,0.3418454999336973,0.4745025000302121,6,0.4218265999807045,0.5384842000203207,,,60.0,63.0,53211,60.0,
77,-77,90,14,11,235,11,,,,,,,,,,,session,2638.813500200049,180.0,2.0,72.0,0.016835936256000005,2,0.6857792000519112,0.7865756000392139,0,0.32833360007498413,0.46247680007945746,0,0.288628299953416,0.3950360999442637,,,69.0,51.0,53211,60.0,
-77,77,-45,14,12,236,4,,,,,,,,,,,session,2646.895946900011,144.0,2.0,72.0,0.016835936256000005,2,0.7794445999898016,0.8790858000284061,1,0.887128199916333,0.9872489999979734,6,0.8236012000124902,0.923844400094822,,,66.0,51.0,53211,60.0,
77,-77,0,14,13,237,9,,,,,,,,,,,session,2656.0633952000644,144.0,2.0,72.0,0.016835936256000005,2,1.1002448999788612,1.2012283999938518,0,0.42304050002712756,0.5397203000029549,0,0.3042901000007987,0.42184540000744164,,,54.0,57.0,53211,60.0,
-77,77,90,14,14,238,7,,,,,,,,,,,session,2663.9166132999817,132.0,2.0,72.0,0.016835936256000005,2,0.7190641000634059,0.869452100014314,6,0.4861761999782175,0.5974055998958647,1,0.6517098000040278,0.7363576999632642,,,51.0,72.0,53211,60.0,
-77,77,45,14,15,239,6,,,,,,,,,,,session,2671.8152888000477,144.0,2.0,72.0,0.016835936256000005,2,0.7707103999564424,0.8707995000295341,6,0.6368061000248417,0.7701431000605226,1,0.33317180001176894,0.4836356999585405,,,57.0,51.0,53211,60.0,
-77,77,45,14,15,239,6,,,materials/instructions\12_break.png,2679.623845800059,2684.7794813000364,0,5.036841200082563,5.153500100015663,0.021580100059509277,5.1611583000048995,,,,,,,,,,,,,,,,,,,,53211,60.0,
77,-77,0,15,0,240,9,,,,,,,,,,,session,2684.795030600042,144.0,2.0,72.0,0.016835936256000005,4,0.5495384000241756,0.6829791000345722,0,0.3394443999277428,0.48943179997149855,6,0.6794657000573352,0.7461890000849962,,,69.0,51.0,53211,60.0,
77,77,45,15,1,241,2,,,,,,,,,,,session,2692.5800026999786,126.0,2.0,72.0,0.016835936256000005,5,0.2920853999676183,0.44211409997660667,7,0.9290906999958679,1.0286434000590816,6,0.6682384999003261,0.7515259999781847,,,48.0,66.0,53211,60.0,
77,-77,90,15,2,242,11,,,,,,,,,,,session,2700.425914200023,126.0,2.0,72.0,0.016835936256000005,4,0.7381668000016361,0.9048841000767425,6,0.36722940008621663,0.5173829999985173,1,1.3406986000481993,1.4906362000619993,,,69.0,48.0,53211,60.0,
-77,77,-45,15,3,243,4,,,,,,,,,,,session,2708.8353514999617,174.0,2.0,72.0,0.016835936256000005,2,0.6976816999958828,0.8420889000408351,1,0.47283230000175536,0.5836938000284135,1,0.3636240999912843,0.4325255999574438,,,48.0,72.0,53211,60.0,
77,-77,45,15,4,244,10,,,,,,,,,,,session,2717.0788912000135,126.0,2.0,72.0,0.016835936256000005,4,0.6061603999696672,0.7219967999262735,7,0.919828400015831,1.0033071999205276,6,0.40751960000488907,0.5389945999486372,,,51.0,48.0,53211,60.0,
-77,77,45,15,5,245,6,,,,,,,,,,,session,2724.5452298000455,126.0,2.0,72.0,0.016835936256000005,2,0.5901536999735981,0.7235784999793395,7,2.589235999970697,2.6888551999581978,1,0.30493920005392283,0.4376912999432534,,,66.0,54.0,53211,60.0,
-77,77,90,15,6,246,7,,,,,,,,,,,session,2733.9358427000698,174.0,2.0,72.0,0.016835936256000005,2,0.6470518000423908,0.781712600030005,6,0.35233509994577616,0.4854635000228882,1,0.6099695999873802,0.7423526999773458,,,72.0,69.0,53211,60.0,
77,77,0,15,7,247,1,,,,,,,,,,,session,2743.2777642,138.0,2.0,72.0,0.016835936256000005,5,0.6400494000408798,0.7596917999908328,0,0.6709222999634221,0.8210404999554157,6,0.586164899985306,0.7027802999364212,,,60.0,54.0,53211,60.0,
-77,-77,90,15,8,248,15,,,,,,,,,,,session,2751.199453599984,156.0,2.0,72.0,0.016835936256000005,3,0.5311833000741899,0.6813283000374213,6,0.429759299964644,0.5626090000150725,1,0.396165500045754,0.5296441001119092,,,57.0,63.0,53211,60.0,
-77,-77,0,15,9,249,13,,,,,,,,,,,session,2759.0759946000762,138.0,2.0,72.0,0.016835936256000005,3,0.432011800003238,0.6162617999361828,0,0.9728824000339955,1.089201599941589,1,0.819970199954696,0.9343343999935314,,,54.0,54.0,53211,60.0,
77,77,-45,15,10,250,0,,,,,,,,,,,session,2767.3954400999937,174.0,2.0,72.0,0.016835936256000005,5,0.34867710003163666,0.48296150006353855,1,1.2637092999648303,1.381062899949029,1,0.31928689999040216,0.45479379990138113,,,69.0,54.0,53211,60.0,
77,77,90,15,11,251,3,,,,,,,,,,,session,2776.1042578000342,126.0,2.0,72.0,0.016835936256000005,5,0.4514587000012398,0.6003917000489309,6,0.5829033999470994,0.715855999966152,1,0.369267400004901,0.5492867999710143,,,54.0,48.0,53211,60.0,
-77,-77,-45,15,12,252,12,,,,,,,,,,,session,2783.277107700007,162.0,2.0,72.0,0.016835936256000005,3,0.688233399996534,0.8518629999598488,1,0.4369520000182092,0.6205885999370366,1,0.6032196999294683,0.7388580000260845,,,48.0,63.0,53211,60.0,
77,-77,-45,15,13,253,8,,,,,,,,,,,session,2791.498189200065,132.0,2.0,72.0,0.016835936256000005,2,0.9068550000665709,1.05680670007132,0,0.4250926000531763,0.6084600000176579,0,0.31977980001829565,0.46974570001475513,,,54.0,54.0,53211,60.0,
-77,77,0,15,14,254,5,,,,,,,,,,,session,2799.0698124000337,126.0,2.0,72.0,0.016835936256000005,2,0.940212200046517,1.044471999979578,1,0.696486399974674,0.7629619999788702,1,0.3222735000308603,0.4407088999869302,,,51.0,69.0,53211,60.0,
-77,-77,45,15,15,255,14,,,,,,,,,,,session,2807.099537100061,126.0,2.0,72.0,0.016835936256000005,2,1.619627199950628,1.752129100030288,0,0.3535560000455007,0.453666300047189,0,0.35439039999619126,0.4688827999634668,,,63.0,54.0,53211,60.0,
77,-77,45,16,0,256,10,,,,,,,,,,,session,2815.280954200076,150.0,2.0,72.0,0.016835936256000005,4,0.485719499993138,0.6191671000560746,7,0.8540206999750808,0.9707680999999866,1,0.3216122000012547,0.42088450002484024,,,63.0,66.0,53211,60.0,
77,-77,0,16,1,257,9,,,,,,,,,,,session,2823.4045358999865,132.0,2.0,72.0,0.016835936256000005,4,0.7284601998981088,0.8631168999709189,7,0.6522121999878436,0.7521901000291109,1,0.4185501999454573,0.5518609000137076,,,57.0,63.0,53211,60.0,
-77,77,45,16,2,258,6,,,,,,,,,,,session,2831.845899500069,180.0,2.0,72.0,0.016835936256000005,2,0.65985619998537,0.826685499981977,1,0.4242555999662727,0.591593399993144,1,1.077268399996683,1.226632499950938,,,63.0,51.0,53211,60.0,
-77,-77,45,16,3,259,14,,,,,,,,,,,session,2840.817745200009,156.0,2.0,72.0,0.016835936256000005,2,1.1970448000356555,1.354677899973467,0,0.34011880005709827,0.48954380000941455,0,0.3676003000000492,0.5171006999444216,,,63.0,69.0,53211,60.0,
-77,-77,45,16,3,259,14,,,materials/instructions\12_break.png,2849.458283600048,2863.7648902999936,0,14.237804600037634,14.305079100071453,0.021005399990826845,14.312557599972934,,,,,,,,,,,,,,,,,,,,53211,60.0,
77,77,-45,16,4,260,0,,,,,,,,,,,session,2863.7808783999644,162.0,2.0,72.0,0.016835936256000005,5,0.6911792999599129,0.7587021000217646,1,1.652463800041005,1.7358893000055104,1,0.8029025999130681,0.8866849999176338,,,57.0,63.0,53211,60.0,
-77,77,0,16,5,261,5,,,,,,,,,,,session,2873.378927999991,132.0,2.0,72.0,0.016835936256000005,2,0.7343058999394998,0.8166927000274882,0,0.7885523000732064,0.8703482000855729,1,0.8027901999885216,0.8855179999954998,,,51.0,51.0,53211,60.0,
-77,-77,90,16,6,262,15,,,,,,,,,,,session,2881.2989392000018,138.0,2.0,72.0,0.016835936256000005,2,0.839026500005275,0.9225954000139609,0,0.31690850004088134,0.4359387999866158,0,0.3386923000216484,0.4387352999765426,,,57.0,48.0,53211,60.0,
77,-77,90,16,7,263,11,,,,,,,,,,,session,2888.5877411999973,138.0,2.0,72.0,0.016835936256000005,4,0.6119860999751836,0.7245628000237048,6,0.37129520007874817,0.47129939997103065,1,1.055017500068061,1.1687570000067353,,,57.0,57.0,53211,60.0,
77,77,0,16,8,264,1,,,,,,,,,,,session,2897.2953290999867,180.0,2.0,72.0,0.016835936256000005,2,0.9554818000178784,1.0376410000026226,0,0.5242925999918953,0.7076578999403864,0,0.421208499930799,0.5880603999830782,,,54.0,60.0,53211,60.0,
-77,-77,0,16,9,265,13,,,,,,,,,,,session,2905.966608799994,138.0,2.0,72.0,0.016835936256000005,2,1.6363431001082063,1.7043522000312805,1,0.2982320999726653,0.46948289999272674,1,0.301674299989827,0.4527871999889612,,,51.0,51.0,53211,60.0,
77,77,90,16,10,266,3,,,,,,,,,,,session,2914.0490248000715,156.0,2.0,72.0,0.016835936256000005,2,1.0866043000714853,1.153070200001821,0,0.3056404000381008,0.4556982000358403,0,0.2868735999800265,0.43592489999718964,,,66.0,72.0,53211,60.0,
77,-77,-45,16,11,267,8,,,,,,,,,,,session,2922.528921899968,138.0,2.0,72.0,0.016835936256000005,2,1.6894994000904262,1.8084612000966445,0,0.3538963000755757,0.5373540000291541,0,0.2522823999170214,0.4182370000053197,,,69.0,63.0,53211,60.0,
-77,-77,-45,16,12,268,12,,,,,,,,,,,session,2931.2198386000236,162.0,2.0,72.0,0.016835936256000005,3,1.0464142999844626,1.2125338000478223,1,2.0240869999397546,2.174091499997303,1,0.2854845999972895,0.45108820009045303,,,63.0,69.0,53211,60.0,
-77,77,90,16,13,269,7,,,,,,,,,,,session,2941.6785628000507,144.0,2.0,72.0,0.016835936256000005,2,0.987772100022994,1.0870069999946281,0,0.30690269998740405,0.4903634999645874,0,0.3029882999835536,0.4716272000223398,,,63.0,63.0,53211,60.0,
-77,77,-45,16,14,270,4,,,,,,,,,,,session,2949.651674499968,150.0,2.0,72.0,0.016835936256000005,2,0.7197288000024855,0.8531900000525638,1,1.417866599978879,1.498858300037682,1,0.29864809999708086,0.43224319990258664,,,51.0,72.0,53211,60.0,
77,77,45,16,15,271,2,,,,,,,,,,,session,2958.430803299998,144.0,2.0,72.0,0.016835936256000005,5,1.636577400029637,1.7192332999547943,0,0.28714429994579405,0.3704031000379473,1,0.2856288000475615,0.40244029997847974,,,69.0,66.0,53211,60.0,
77,-77,0,17,0,272,9,,,,,,,,,,,session,2967.0289470000425,162.0,2.0,72.0,0.016835936256000005,4,0.487660099985078,0.671469199936837,0,0.8574444999685511,0.9407628000481054,1,0.3375110999913886,0.43765129998791963,,,60.0,63.0,53211,60.0,
-77,-77,-45,17,1,273,12,,,,,,,,,,,session,2975.2700046000537,174.0,2.0,72.0,0.016835936256000005,2,0.8964858999243006,0.9794672999996692,0,0.3342499000718817,0.5313525000819936,0,0.31715730007272214,0.4838700999971479,,,60.0,51.0,53211,60.0,
77,77,45,17,2,274,2,,,,,,,,,,,session,2983.778097099974,132.0,2.0,72.0,0.016835936256000005,2,1.3843553999904543,1.5176737000001594,0,0.34108679997734725,0.47449119994416833,0,0.30556459992658347,0.48903739999514073,,,54.0,54.0,53211,60.0,
77,-77,45,17,3,275,10,,,,,,,,,,,session,2991.6994033000665,156.0,2.0,72.0,0.016835936256000005,4,1.257124499999918,1.4404442000668496,7,0.907318799989298,1.0586707999464124,1,0.2928801999660209,0.4266281999880448,,,72.0,69.0,53211,60.0,
77,-77,-45,17,4,276,8,,,,,,,,,,,session,3001.0100601000013,150.0,2.0,72.0,0.016835936256000005,4,0.6329594999551773,0.7820394999580458,1,1.0013191000325605,1.0862590000033379,1,0.9365619999589399,1.0677466000197455,,,63.0,54.0,53211,60.0,
-77,-77,0,17,5,277,13,,,,,,,,,,,session,3010.2631887000753,162.0,2.0,72.0,0.016835936256000005,3,0.6274635000154376,0.7610558000160381,0,0.7428910000016913,0.8421465998981148,6,1.2559866999508813,1.3571663999464363,,,48.0,66.0,53211,60.0,
-77,77,-45,17,6,278,4,,,,,,,,,,,session,3019.271193100023,150.0,2.0,72.0,0.016835936256000005,2,0.9965938999084756,1.1012817999580875,0,0.48762240004725754,0.6207981000188738,0,0.2983963000588119,0.43638060009106994,,,48.0,54.0,53211,60.0,
-77,-77,90,17,7,279,15,,,,,,,,,,,session,3027.297713399981,144.0,2.0,72.0,0.016835936256000005,2,1.700408099917695,1.8339576999424025,0,1.224551699939184,1.3243299999739975,0,0.36952670000027865,0.45270819996949285,,,60.0,66.0,53211,60.0,
-77,-77,90,17,7,279,15,,,materials/instructions\12_break.png,3036.8918646000093,3048.193920299993,0,11.1674354999559,11.300031299935654,0.02559299999848008,11.307556799962185,,,,,,,,,,,,,,,,,,,,53211,60.0,
-77,77,45,17,8,280,6,,,,,,,,,,,session,3048.209941899986,144.0,2.0,72.0,0.016835936256000005,2,0.7759458000073209,0.8914935999782756,1,0.8980614999309182,1.048579299938865,1,0.304372499929741,0.47076069994363934,,,48.0,66.0,53211,60.0,
77,77,0,17,9,281,1,,,,,,,,,,,session,3056.365193600068,162.0,2.0,72.0,0.016835936256000005,5,0.616843199939467,0.7669490999542177,0,0.30049360007978976,0.45054610003717244,1,0.11594950000289828,0.2662602999480441,,,54.0,60.0,53211,60.0,
-77,77,0,17,10,282,5,,,,,,,,,,,session,3063.903393100016,150.0,2.0,72.0,0.016835936256000005,2,0.011098999995738268,0.012928899959661067,0,0.4032170999562368,0.5344415999716148,1,0.40151379990857095,0.5648762999335304,,,57.0,48.0,53211,60.0,
-77,77,90,17,11,283,7,,,,,,,,,,,session,3071.113009999972,150.0,2.0,72.0,0.016835936256000005,2,1.2523906000424176,1.466878000064753,1,0.40804420004133135,0.5747499000281096,1,0.3029665999347344,0.48653249989729375,,,51.0,69.0,53211,60.0,
77,77,-45,17,12,284,0,,,,,,,,,,,session,3079.582735700067,144.0,2.0,72.0,0.016835936256000005,5,0.8065989000024274,0.9578857999294996,1,1.8059118998935446,1.9406128999544308,6,1.149839699966833,1.2604278000071645,,,66.0,72.0,53211,60.0,
77,-77,90,17,13,285,11,,,,,,,,,,,session,3089.8774619000033,180.0,2.0,72.0,0.016835936256000005,4,0.36922280001454055,0.5366049000294879,6,0.37317080004140735,0.489975200034678,1,0.29840189998503774,0.4317655999911949,,,54.0,69.0,53211,60.0,
77,77,90,17,14,286,3,,,,,,,,,,,session,3098.163359600003,138.0,2.0,72.0,0.016835936256000005,5,0.7701137999538332,0.9029568999540061,6,0.791063699987717,0.891147300018929,1,0.505216300021857,0.6559565999777988,,,51.0,48.0,53211,60.0,
-77,-77,45,17,15,287,14,,,,,,,,,,,session,3106.003954200074,150.0,2.0,72.0,0.016835936256000005,3,0.7697650999762118,0.9198218999663368,7,1.4649877999909222,1.5317095000064,1,0.41746160003822297,0.5539282000390813,,,48.0,72.0,53211,60.0,
-77,77,-45,18,0,288,4,,,,,,,,,,,session,3114.9833020999795,180.0,2.0,72.0,0.016835936256000005,2,3.4573332000290975,3.639882200048305,0,0.34980770002584904,0.49999360006768256,0,0.45288830006029457,0.6196622001007199,,,69.0,48.0,53211,60.0,
-77,-77,-45,18,1,289,12,,,,,,,,,,,session,3126.1670303000137,162.0,2.0,72.0,0.016835936256000005,3,0.6773320999927819,0.8252184999873862,6,0.3388931999215856,0.489203599980101,1,1.0593183001037687,1.1806545000290498,,,69.0,51.0,53211,60.0,
-77,77,0,18,2,290,5,,,,,,,,,,,session,3134.815956300008,150.0,2.0,72.0,0.016835936256000005,2,0.8192241999786347,0.9366549999685958,0,0.6466632999945432,0.8158503000158817,1,1.068290299968794,1.1851052000420168,,,63.0,60.0,53211,60.0,
77,77,90,18,3,291,3,,,,,,,,,,,session,3143.86501389998,126.0,2.0,72.0,0.016835936256000005,2,2.43097340001259,2.58117390004918,0,0.4775398999918252,0.6599989000242203,0,0.33363899996038526,0.5003283000551164,,,48.0,69.0,53211,60.0,
77,77,45,18,4,292,2,,,,,,,,,,,session,3153.1050629999954,174.0,2.0,72.0,0.016835936256000005,5,0.6590687999268994,0.8084447999717668,7,1.656138899968937,1.7392647999804467,1,0.4236763999797404,0.5736943999072537,,,63.0,54.0,53211,60.0,
77,-77,0,18,5,293,9,,,,,,,,,,,session,3163.0843702000566,180.0,2.0,72.0,0.016835936256000005,4,0.6864761000033468,0.8533483999781311,0,0.7389221000485122,0.958471899968572,1,0.4633593000471592,0.6309484000084922,,,57.0,72.0,53211,60.0,
-77,-77,0,18,6,294,13,,,,,,,,,,,session,3172.1198005999904,132.0,2.0,72.0,0.016835936256000005,3,0.47125260008033365,0.6546124001033604,1,1.053575100027956,1.231790899997577,1,0.3360732999863103,0.5155963000142947,,,63.0,69.0,53211,60.0,
77,77,-45,18,7,295,0,,,,,,,,,,,session,3180.3626582999714,150.0,2.0,72.0,0.016835936256000005,5,1.101031900034286,1.2010658000363037,1,1.1251937999622896,1.275247999932617,1,0.3382052999222651,0.4869949999265373,,,48.0,66.0,53211,60.0,
-77,-77,90,18,8,296,15,,,,,,,,,,,session,3189.1803139999975,180.0,2.0,72.0,0.016835936256000005,3,0.38983820006251335,0.5755240999860689,6,0.41067339992150664,0.6085281999548897,6,0.23648179997690022,0.4369052000110969,,,54.0,69.0,53211,60.0,
77,-77,45,18,9,297,10,,,,,,,,,,,session,3197.28903850005,156.0,2.0,72.0,0.016835936256000005,4,0.011197399930097163,0.09830770001281053,7,1.3184019000036642,1.43712100002449,1,0.3508476000279188,0.46756320004351437,,,48.0,51.0,53211,60.0,
-77,77,90,18,10,298,7,,,,,,,,,,,session,3205.546289299964,162.0,2.0,72.0,0.016835936256000005,2,0.7494104000506923,0.9162162001011893,0,0.5164793999865651,0.685364400036633,0,0.41950100008398294,0.6363466000184417,,,60.0,54.0,53211,60.0,
-77,77,45,18,11,299,6,,,,,,,,,,,session,3213.8333671999862,162.0,2.0,72.0,0.016835936256000005,2,1.1194790001027286,1.2861381000839174,0,0.47188480000477284,0.6887053999816999,0,0.41832669998984784,0.5966801999602467,,,66.0,48.0,53211,60.0,
-77,77,45,18,11,299,6,,,materials/instructions\12_break.png,3222.4940157000674,3242.1699896999635,0,19.458846000023186,19.673861799994484,0.014328300021588802,19.681603500037454,,,,,,,,,,,,,,,,,,,,53211,60.0,
-77,-77,45,18,12,300,14,,,,,,,,,,,session,3242.1855629000347,132.0,2.0,72.0,0.016835936256000005,5,5.004055600031279,5.0693064000224695,6,1.1176838999381289,1.1870389999821782,1,1.1688397999387234,1.2188715999945998,,,51.0,69.0,53211,60.0,
77,77,0,18,13,301,1,,,,,,,,,,,session,3255.9658536000643,174.0,2.0,72.0,0.016835936256000005,5,0.7893737000413239,0.9208362000063062,0,1.3923324999632314,1.4423475000075996,1,1.3048122000182047,1.371464499970898,,,57.0,72.0,53211,60.0,
77,-77,90,18,14,302,11,,,,,,,,,,,session,3266.194668299984,132.0,2.0,72.0,0.016835936256000005,4,0.6998295999364927,0.7998001000378281,7,1.5520988999633119,1.634334999951534,1,1.653855999931693,1.7219652999192476,,,54.0,69.0,53211,60.0,
77,-77,-45,18,15,303,8,,,,,,,,,,,session,3276.5007045000093,174.0,2.0,72.0,0.016835936256000005,2,1.7379365999950096,1.8509132000617683,0,0.35646829998586327,0.48898190003819764,0,0.3046574000036344,0.40495569992344826,,,60.0,69.0,53211,60.0,
77,-77,45,19,0,304,10,,,,,,,,,,,session,3285.739614399965,156.0,2.0,72.0,0.016835936256000005,4,0.6754510999890044,0.808565599960275,7,2.0211621000198647,2.1206828999565914,1,1.0345504999859259,1.1019589999923483,,,60.0,69.0,53211,60.0,
-77,77,-45,19,1,305,4,,,,,,,,,,,session,3296.5976252000546,132.0,2.0,72.0,0.016835936256000005,4,1.5017133998917416,1.6350458998931572,1,1.8921769000589848,1.9934103999985382,1,0.32254130009096116,0.49012740002945065,,,60.0,72.0,53211,60.0,
77,-77,0,19,2,306,9,,,,,,,,,,,session,3306.555315800011,180.0,2.0,72.0,0.016835936256000005,4,1.499627299956046,1.633065399946645,0,1.4049694000277668,1.4527779000345618,1,1.1204146000090986,1.1712246000533924,,,51.0,48.0,53211,60.0,
-77,-77,-45,19,3,307,12,,,,,,,,,,,session,3317.216403300059,168.0,2.0,72.0,0.016835936256000005,3,0.7013682000106201,0.8181207000743598,1,1.0758573999628425,1.1426123999990523,1,0.3181640999391675,0.43495979998260736,,,51.0,60.0,53211,60.0,
77,77,90,19,4,308,3,,,,,,,,,,,session,3325.701946199988,162.0,2.0,72.0,0.016835936256000005,5,0.6396637000143528,0.7374593999702483,6,0.6827316000126302,0.8161668999819085,1,1.2987894000252709,1.3657352000009269,,,63.0,51.0,53211,60.0,
77,-77,-45,19,5,309,8,,,,,,,,,,,session,3334.6636139000766,156.0,2.0,72.0,0.016835936256000005,2,0.9726743000792339,1.0727636000374332,0,1.0729792000493035,1.156326700001955,0,0.46735829999670386,0.565530699910596,,,63.0,51.0,53211,60.0,
77,-77,90,19,6,310,11,,,,,,,,,,,session,3343.4154029999627,144.0,2.0,72.0,0.016835936256000005,4,0.8664704000111669,0.9989979000529274,6,0.48823060002177954,0.6381356000201777,1,0.8058471999829635,0.8892584999557585,,,57.0,54.0,53211,60.0,
77,77,-45,19,7,311,0,,,,,,,,,,,session,3351.63948360004,174.0,2.0,72.0,0.016835936256000005,5,1.1796860999893397,1.2933379999594763,1,1.5711497999727726,1.6701257000677288,1,1.1362748000537977,1.2165717000607401,,,69.0,51.0,53211,60.0,
77,77,0,19,8,312,1,,,,,,,,,,,session,3362.829679299961,156.0,2.0,72.0,0.016835936256000005,2,0.7483374000294134,0.8650017000036314,0,0.8230021999916062,0.8890667000086978,0,0.3648673000279814,0.45029100007377565,,,48.0,72.0,53211,60.0,
-77,77,90,19,9,313,7,,,,,,,,,,,session,3371.072167300037,126.0,2.0,72.0,0.016835936256000005,2,1.3054745000554249,1.405597300035879,0,0.8364084999775514,0.9194818999385461,0,0.0821844000602141,0.2014717001002282,,,60.0,66.0,53211,60.0,
77,77,45,19,10,314,2,,,,,,,,,,,session,3379.2348689000355,180.0,2.0,72.0,0.016835936256000005,5,0.776842899969779,0.8921922999434173,7,0.9733563000336289,1.0745764001039788,1,0.8183066999772564,0.9017160999355838,,,72.0,57.0,53211,60.0,
-77,77,0,19,11,315,5,,,,,,,,,,,session,3388.7001412999816,156.0,2.0,72.0,0.016835936256000005,2,0.978253599954769,1.0772670999867842,0,0.8091094000265002,0.8921130000380799,0,0.4230097000254318,0.5229767001001164,,,60.0,51.0,53211,60.0,
-77,-77,0,19,12,316,13,,,,,,,,,,,session,3397.0574812999694,150.0,2.0,72.0,0.016835936256000005,3,0.5660497999051586,0.6966351999435574,0,0.6365647000493482,0.7363664000295103,0,2.3910025999648497,2.474439900019206,,,69.0,51.0,53211,60.0,
-77,-77,45,19,13,317,14,,,,,,,,,,,session,3407.484280499979,144.0,2.0,72.0,0.016835936256000005,2,0.9992110999301076,1.0825307000195608,0,0.6879125999985263,0.787970699951984,0,0.35469449998345226,0.521452600019984,,,63.0,72.0,53211,60.0,
-77,77,45,19,14,318,6,,,,,,,,,,,session,3415.970729600056,168.0,2.0,72.0,0.016835936256000005,2,1.0201106000458822,1.120184800005518,0,0.570366199943237,0.7000539998989552,0,0.26877019996754825,0.3839988000690937,,,69.0,69.0,53211,60.0,
-77,-77,90,19,15,319,15,,,,,,,,,,,session,3424.84759879997,168.0,2.0,72.0,0.016835936256000005,3,1.088615799904801,1.2212570999981835,6,0.6082738999975845,0.7082077000522986,1,0.5718103999970481,0.6907652999507263,,,63.0,66.0,53211,60.0,
-77,-77,90,19,15,319,15,,,materials/instructions\12_break.png,3433.8835181000177,3444.7295599000063,0,10.694034799933434,10.84425999992527,0.01860880001913756,10.851626200019382,,,,,,,,,,,,,,,,,,,,53211,60.0,
77,77,0,20,0,320,1,,,,,,,,,,,session,3444.745759100071,132.0,2.0,72.0,0.016835936256000005,5,0.7407101999269798,0.8414978999644518,0,0.33808279992081225,0.5404089000076056,6,0.8498052000068128,0.9160925999749452,,,69.0,63.0,53211,60.0,
-77,-77,-45,20,1,321,12,,,,,,,,,,,session,3452.900314299972,156.0,2.0,72.0,0.016835936256000005,3,0.7539651999250054,0.9207184999249876,1,0.6877785000251606,0.819483800092712,1,0.6060065999627113,0.7730564000084996,,,66.0,51.0,53211,60.0,
-77,77,45,20,2,322,6,,,,,,,,,,,session,3461.4235389999812,132.0,2.0,72.0,0.016835936256000005,2,0.6291869999840856,0.7843001999426633,7,1.0690319000277668,1.1556848000036553,1,0.35345180006697774,0.48511929996311665,,,63.0,57.0,53211,60.0,
77,77,-45,20,3,323,0,,,,,,,,,,,session,3469.816483200062,174.0,2.0,72.0,0.016835936256000005,5,0.43598320009186864,0.6019921000115573,1,0.6082376999547705,0.7583403000608087,1,0.3349839000729844,0.5177957999985665,,,51.0,69.0,53211,60.0,
-77,-77,0,20,4,324,13,,,,,,,,,,,session,3478.035324900062,132.0,2.0,72.0,0.016835936256000005,2,1.0052001000149176,1.1719813999952748,0,0.35620949999429286,0.5576984999934211,0,0.27009330003056675,0.4703898000298068,,,60.0,66.0,53211,60.0,
77,-77,45,20,5,325,10,,,,,,,,,,,session,3485.9741321000038,150.0,2.0,72.0,0.016835936256000005,4,0.8176757000619546,0.99848780001048,7,1.088614400010556,1.1889314000727609,1,0.23429619998205453,0.3995835999958217,,,48.0,69.0,53211,60.0,
77,77,90,20,6,326,3,,,,,,,,,,,session,3495.014383199974,180.0,2.0,72.0,0.016835936256000005,2,1.1050001999828964,1.2718453999841586,0,0.19164739991538227,0.42422639997676015,0,0.2735390999587253,0.4728778999997303,,,60.0,51.0,53211,60.0,
-77,77,90,20,7,327,7,,,,,,,,,,,session,3503.4884101999924,168.0,2.0,72.0,0.016835936256000005,2,0.8716714999172837,1.0551029000198469,0,0.040621699998155236,0.24802409997209907,0,0.011118800030089915,0.24698100006207824,,,48.0,69.0,53211,60.0,
-77,-77,90,20,8,328,15,,,,,,,,,,,session,3511.2476490000263,126.0,2.0,72.0,0.016835936256000005,3,0.7718018000014126,0.9217445999383926,6,0.3053556999657303,0.48928199999500066,1,0.4528235999168828,0.6028448999859393,,,72.0,57.0,53211,60.0,
-77,77,-45,20,9,329,4,,,,,,,,,,,session,3518.9657071999973,168.0,2.0,72.0,0.016835936256000005,2,0.9707515999907628,1.1709278000053018,0,0.2807852999540046,0.5155242000473663,0,0.3439123999560252,0.5107588999671862,,,60.0,57.0,53211,60.0,
-77,-77,45,20,10,330,14,,,,,,,,,,,session,3527.340589700034,156.0,2.0,72.0,0.016835936256000005,2,1.4475206999341026,1.5764699999708682,0,0.3185524999862537,0.48611029994208366,0,0.27841969998553395,0.43572529999073595,,,48.0,66.0,53211,60.0,
77,77,45,20,11,331,2,,,,,,,,,,,session,3535.9532944000093,162.0,2.0,72.0,0.016835936256000005,5,0.6867553000338376,0.8206815000157803,7,2.525301199988462,2.608684200095013,1,0.3228079999098554,0.43938489991705865,,,51.0,69.0,53211,60.0,
-77,77,0,20,12,332,5,,,,,,,,,,,session,3545.9702569000656,150.0,2.0,72.0,0.016835936256000005,2,0.871622100006789,1.0362116999458522,0,0.3084800000069663,0.4262865000637248,0,0.3350164000876248,0.4465291000669822,,,69.0,54.0,53211,60.0,
77,-77,0,20,13,333,9,,,,,,,,,,,session,3553.879870700068,180.0,2.0,72.0,0.016835936256000005,4,0.7218868000200018,0.9047920000739396,0,0.48757320002187043,0.6549782999791205,1,1.7037581000477076,1.9038350000046194,,,57.0,66.0,53211,60.0,
77,-77,90,20,14,334,11,,,,,,,,,,,session,3564.1369024000596,174.0,2.0,72.0,0.016835936256000005,4,2.871302100014873,3.004719099961221,6,0.49266160000115633,0.5904116999590769,1,0.3227412999840453,0.44764090003445745,,,66.0,66.0,53211,60.0,
77,-77,-45,20,15,335,8,,,,,,,,,,,session,3574.8013236999977,126.0,2.0,72.0,0.016835936256000005,4,0.38689740002155304,0.5368801000295207,1,0.5196955999126658,0.7205603999318555,1,0.11968869995325804,0.3027468000072986,,,51.0,60.0,53211,60.0,
77,77,-45,21,0,336,0,,,,,,,,,,,session,3582.3154773999704,132.0,2.0,72.0,0.016835936256000005,5,0.7180159999988973,0.818121499964036,1,1.4425755999982357,1.6087894000811502,6,0.6218382999068126,0.6885473999427631,,,69.0,54.0,53211,60.0,
77,77,90,21,1,337,3,,,,,,,,,,,session,3591.120641799993,156.0,2.0,72.0,0.016835936256000005,2,0.9123280999483541,1.061511499923654,0,0.2971140000736341,0.4692659000866115,0,0.36368349997792393,0.5450791999464855,,,69.0,63.0,53211,60.0,
-77,77,0,21,2,338,5,,,,,,,,,,,session,3599.448081300012,168.0,2.0,72.0,0.016835936256000005,2,0.7846389999613166,0.9511789999669418,0,0.4855005000717938,0.6524185000453144,0,0.32121600001119077,0.487407400039956,,,54.0,54.0,53211,60.0,
