x,y,orientation,.thisRepN,.thisTrialN,.thisN,.thisIndex,.stepSize,.intensity,image_name,global_start_time,global_end_time,pressKey,pressRT,releaseRT,image_started,image_ended,name,globalTime,fixation_dur,stimulation_dur,post_fixation,opacity,locationResponse_pressKey,locationResponse_pressRT,locationResponse_releaseRT,orientationResponse_pressKey,orientationResponse_pressRT,orientationResponse_releaseRT,pasResponse_pressKey,pasResponse_pressRT,pasResponse_releaseRT,.response,finalOpacity,postLoc,postOri,ID,frameRate,
,,,0,-1,-1,0,0.0969100130080564,None,materials/instructions\1_welcome.png,2.5289522000821307,37.69781859999057,0,35.00017600005958,35.16693359997589,0.0597250999417156,35.17075249995105,,,,,,,,,,,,,,,,,,,,58474,60.0,
,,,0,-1,-1,0,0.0969100130080564,None,materials/instructions\2_instruction.png,37.748606299981475,55.12885129998904,0,17.19503259996418,17.378147899988107,0.020241099991835654,17.386163900024258,,,,,,,,,,,,,,,,,,,,58474,60.0,
,,,0,-1,-1,0,0.0969100130080564,None,materials/instructions\3_location_demo.png,55.18301779998001,63.98561059997883,0,8.650202300050296,8.800505400053225,0.015874099917709827,8.808446199982427,,,,,,,,,,,,,,,,,,,,58474,60.0,
,,,0,-1,-1,0,0.0969100130080564,None,materials/instructions\4_orientation_demo.png,64.03537280007731,96.9768321000738,0,32.77264930005185,32.939345599967055,0.020189600065350533,32.94697580009233,,,,,,,,,,,,,,,,,,,,58474,60.0,
,,,0,-1,-1,0,0.0969100130080564,None,materials/instructions\5_pas_demo.png,97.03001690004021,116.62806500005536,0,19.462720199953765,19.59604919992853,0.01714809995610267,19.603734899894334,,,,,,,,,,,,,,,,,,,,58474,60.0,
77,77,0,0,-1,-1,0,0.0969100130080564,None,,,,,,,,,session,116.64411570003722,132.0,2.0,72.0,0.1,5,7.146319600054994,7.362395400064997,0,3.4046308000106364,3.5738137000007555,1,4.8863541999598965,5.055729900021106,,,,,58474,60.0,
77,77,-45,0,-1,-1,0,0.0969100130080564,None,,,,,,,,,session,136.24817460007034,150.0,2.0,72.0,0.1,3,1.5043075999710709,1.6841667999979109,0,2.3676130999810994,2.5365419998997822,1,7.206575800082646,7.4399706000695005,,,,,58474,60.0,
77,77,90,0,-1,-1,0,0.0969100130080564,None,,,,,,,,,session,151.78717110003345,162.0,2.0,72.0,0.1,2,3.0040676000062376,3.154037900036201,0,2.0132024999475107,2.195662199985236,0,1.3300531000131741,1.479577999911271,,,,,58474,60.0,
77,77,45,0,-1,-1,0,0.0969100130080564,None,,,,,,,,,session,163.3325645000441,138.0,2.0,72.0,0.1,4,2.702122199931182,2.9023081000195816,6,3.8585717999376357,4.058512500021607,1,5.5130215000826865,5.679936100030318,,,,,58474,60.0,
-77,77,-45,0,-1,-1,0,0.0969100130080564,None,,,,,,,,,session,179.6454861999955,144.0,2.0,72.0,0.1,2,5.925813299953006,6.075870299944654,1,2.071251199929975,2.2212962999474257,1,1.968449900043197,2.1527808000100777,,,,,58474,60.0,
,,,0,-1,-1,0,0.0969100130080564,None,materials/instructions\10_staircase_start.png,193.92712230002508,212.68171989999246,0,18.62122279999312,18.75250139995478,0.010403899941593409,18.760442900005728,,,,,,,,,,,,,,,,,,,,58474,60.0,
,,,0,0,-1,0,0.0969100130080564,0.1,,,,,,,,,staircase,212.69668459997047,132.0,2.0,72.0,0.1,,,,6,1.8681783999782056,2.0350142000243068,,,,1,,,,58474,60.0,
,,,0,1,-1,0,0.0969100130080564,0.08,,,,,,,,,staircase,218.25498219998553,174.0,2.0,72.0,0.08,,,,1,2.3896280999761075,2.5575973000377417,,,,1,,,,58474,60.0,
,,,0,2,-1,0,0.0969100130080564,0.064,,,,,,,,,staircase,225.69540259998757,180.0,2.0,72.0,0.064,,,,6,0.9317348999902606,1.097961000050418,,,,1,,,,58474,60.0,
,,,0,3,-1,0,0.0969100130080564,0.0512,,,,,,,,,staircase,231.1138608000474,144.0,2.0,72.0,0.0512,,,,6,0.6540173999965191,0.8027726999716833,,,,1,,,,58474,60.0,
,,,0,4,-1,0,0.0969100130080564,0.04096,,,,,,,,,staircase,235.61666290007997,126.0,2.0,72.0,0.04096,,,,1,2.037754899938591,2.169594799983315,,,,0,,,,58474,60.0,
,,,0,5,-1,0,0.0969100130080564,0.0512,,,,,,,,,staircase,241.203916199971,180.0,2.0,72.0,0.0512,,,,6,0.3053627999033779,0.4581862000050023,,,,1,,,,58474,60.0,
,,,0,6,-1,0,0.0969100130080564,0.0512,,,,,,,,,staircase,246.4469055000227,126.0,2.0,72.0,0.0512,,,,6,0.2237272000638768,0.39040010003373027,,,,1,,,,58474,60.0,
,,,0,7,-1,0,0.0969100130080564,0.04096,,,,,,,,,staircase,250.26351800002158,144.0,2.0,72.0,0.04096,,,,7,1.5205333000048995,1.6875802000286058,,,,1,,,,58474,60.0,
,,,0,8,-1,0,0.0969100130080564,0.04096,,,,,,,,,staircase,255.66534980002325,138.0,2.0,72.0,0.04096,,,,0,0.5173991000046954,0.6814591999864206,,,,1,,,,58474,60.0,
,,,0,9,-1,0,0.0969100130080564,0.032768000000000005,,,,,,,,,staircase,259.96718540007714,162.0,2.0,72.0,0.032768000000000005,,,,7,1.897103099967353,2.092952199978754,,,,1,,,,58474,60.0,
,,,0,10,-1,0,0.0969100130080564,0.032768000000000005,,,,,,,,,staircase,266.2261046000058,144.0,2.0,72.0,0.032768000000000005,,,,7,0.4222536999732256,0.5709850999992341,,,,1,,,,58474,60.0,
,,,0,11,-1,0,0.0969100130080564,0.026214400000000006,,,,,,,,,staircase,270.5114661999978,132.0,2.0,72.0,0.026214400000000006,,,,1,0.53654010000173,0.6685495000565425,,,,1,,,,58474,60.0,
,,,0,12,-1,0,0.0969100130080564,0.026214400000000006,,,,,,,,,staircase,274.6957205000799,150.0,2.0,72.0,0.026214400000000006,,,,1,0.515086599974893,0.6661153000313789,,,,1,,,,58474,60.0,
,,,0,13,-1,0,0.0969100130080564,0.020971520000000004,,,,,,,,,staircase,279.18366840004455,162.0,2.0,72.0,0.020971520000000004,,,,0,0.9230565000325441,1.055138900061138,,,,0,,,,58474,60.0,
,,,0,14,-1,0,0.0969100130080564,0.026214400000000006,,,,,,,,,staircase,284.2535963000264,138.0,2.0,72.0,0.026214400000000006,,,,7,1.4609611999476328,1.6624987999675795,,,,1,,,,58474,60.0,
,,,0,15,-1,0,0.0969100130080564,0.026214400000000006,,,,,,,,,staircase,290.1302147000097,162.0,2.0,72.0,0.026214400000000006,,,,0,0.8648971000220627,0.9982066999655217,,,,1,,,,58474,60.0,
,,,0,16,-1,0,0.0969100130080564,0.020971520000000004,,,,,,,,,staircase,295.1450472000288,174.0,2.0,72.0,0.020971520000000004,,,,6,2.50535160000436,2.6742855000775307,,,,0,,,,58474,60.0,
,,,0,17,-1,0,0.0969100130080564,0.026214400000000006,,,,,,,,,staircase,302.03597470000386,156.0,2.0,72.0,0.026214400000000006,,,,6,1.4254149000626057,1.6089174000080675,,,,0,,,,58474,60.0,
,,,0,18,-1,0,0.0969100130080564,0.032768000000000005,,,,,,,,,staircase,307.58825710008387,132.0,2.0,72.0,0.032768000000000005,,,,6,0.29810290003661066,0.4672063000034541,,,,1,,,,58474,60.0,
,,,0,19,-1,0,0.0969100130080564,0.032768000000000005,,,,,,,,,staircase,312.0977333000628,156.0,2.0,72.0,0.032768000000000005,,,,1,0.9351680000545457,1.1185656000161543,,,,1,,,,58474,60.0,
,,,0,20,-1,0,0.0969100130080564,0.026214400000000006,,,,,,,,,staircase,317.1479226000374,132.0,2.0,72.0,0.026214400000000006,,,,1,0.7687764000147581,0.9522684999974445,,,,0,,,,58474,60.0,
,,,0,21,-1,0,0.0969100130080564,0.032768000000000005,,,,,,,,,staircase,321.61497580003925,168.0,2.0,72.0,0.032768000000000005,,,,1,0.919028399977833,1.0867307999869809,,,,1,,,,58474,60.0,
,,,0,22,-1,0,0.0969100130080564,0.032768000000000005,,,,,,,,,staircase,326.82277830003295,174.0,2.0,72.0,0.032768000000000005,,,,6,0.7490375000052154,0.011453700019046664,,,,1,,,,58474,60.0,
,,,0,23,-1,0,0.0969100130080564,0.026214400000000006,,,,,,,,,staircase,332.2004944999935,126.0,2.0,72.0,0.026214400000000006,,,,7,1.6878026999766007,0.011341399978846312,,,,0,,,,58474,60.0,
,,,0,24,-1,0,0.0969100130080564,0.032768000000000005,,,,,,,,,staircase,337.3151878999779,180.0,2.0,72.0,0.032768000000000005,,,,1,1.2291009000036865,0.011444099945947528,,,,1,,,,58474,60.0,
,,,0,25,-1,0,0.0969100130080564,0.032768000000000005,,,,,,,,,staircase,342.8672622999875,180.0,2.0,72.0,0.032768000000000005,,,,6,1.1701652999036014,0.011383899953216314,,,,1,,,,58474,60.0,
,,,0,26,-1,0,0.0969100130080564,0.026214400000000006,,,,,,,,,staircase,348.3548361000139,144.0,2.0,72.0,0.026214400000000006,,,,1,0.6169335000449792,0.011222500004805624,,,,1,,,,58474,60.0,
,,,0,27,-1,0,0.0969100130080564,0.026214400000000006,,,,,,,,,staircase,352.7844171000179,138.0,2.0,72.0,0.026214400000000006,,,,7,1.215844599995762,0.011442099930718541,,,,1,,,,58474,60.0,
,,,0,28,-1,0,0.0969100130080564,0.020971520000000004,,,,,,,,,staircase,357.9475052000489,180.0,2.0,72.0,0.020971520000000004,,,,0,0.7662290999433026,0.011428999947384,,,,0,,,,58474,60.0,
,,,0,29,-1,0,0.0969100130080564,0.026214400000000006,,,,,,,,,staircase,363.03212330001406,156.0,2.0,72.0,0.026214400000000006,,,,6,1.283680299995467,0.011408100021071732,,,,1,,,,58474,60.0,
,,,0,30,-1,0,0.0969100130080564,0.026214400000000006,,,,,,,,,staircase,368.2531252000481,144.0,2.0,72.0,0.026214400000000006,,,,6,0.2812776999780908,0.012974100071005523,,,,1,,,,58474,60.0,
,,,0,31,-1,0,0.0969100130080564,0.020971520000000004,,,,,,,,,staircase,372.25700980005786,162.0,2.0,72.0,0.020971520000000004,,,,1,0.9654666000278667,0.011324900086037815,,,,1,,,,58474,60.0,
,,,0,32,-1,0,0.0969100130080564,0.020971520000000004,,,,,,,,,staircase,377.7810709000332,168.0,2.0,72.0,0.020971520000000004,,,,0,0.338485199958086,0.01149129995610565,,,,1,,,,58474,60.0,
,,,0,33,-1,0,0.0969100130080564,0.016777216000000005,,,,,,,,,staircase,382.2344936999725,180.0,2.0,72.0,0.016777216000000005,,,,6,1.5369415000313893,0.01145140000153333,,,,0,,,,58474,60.0,
,,,0,34,-1,0,0.0969100130080564,0.020971520000000007,,,,,,,,,staircase,388.10208630003035,162.0,2.0,72.0,0.020971520000000007,,,,0,1.4704908999847248,0.01125570002477616,,,,0,,,,58474,60.0,
,,,0,35,-1,0,0.0969100130080564,0.02621440000000001,,,,,,,,,staircase,393.5903809000738,174.0,2.0,72.0,0.02621440000000001,,,,6,1.198018900002353,0.011502499924972653,,,,1,,,,58474,60.0,
,,,0,36,-1,0,0.0969100130080564,0.02621440000000001,,,,,,,,,staircase,399.4502007000847,138.0,2.0,72.0,0.02621440000000001,,,,6,1.07052670000121,0.01139510003849864,,,,0,,,,58474,60.0,
,,,0,37,-1,0,0.0969100130080564,0.03276800000000001,,,,,,,,,staircase,404.1518015000038,156.0,2.0,72.0,0.03276800000000001,,,,0,0.6463395999744534,0.011330499895848334,,,,1,,,,58474,60.0,
,,,0,38,-1,0,0.0969100130080564,0.03276800000000001,,,,,,,,,staircase,408.7338528999826,138.0,2.0,72.0,0.03276800000000001,,,,7,1.007187300012447,0.011453300016000867,,,,1,,,,58474,60.0,
,,,0,39,-1,0,0.0969100130080564,0.02621440000000001,,,,,,,,,staircase,413.37287309998646,168.0,2.0,72.0,0.02621440000000001,,,,1,1.907523600035347,0.012075499980710447,,,,1,,,,58474,60.0,
,,,0,40,-1,0,0.0969100130080564,0.02621440000000001,,,,,,,,,staircase,419.39644470007624,132.0,2.0,72.0,0.02621440000000001,,,,1,0.4456618999829516,0.011243300046771765,,,,1,,,,58474,60.0,
,,,0,41,-1,0,0.0969100130080564,0.020971520000000007,,,,,,,,,staircase,423.6810170999961,156.0,2.0,72.0,0.020971520000000007,,,,6,1.8837770000100136,0.011454399907961488,,,,1,,,,58474,60.0,
,,,0,42,-1,0,0.0969100130080564,0.020971520000000007,,,,,,,,,staircase,429.48221919999924,180.0,2.0,72.0,0.020971520000000007,,,,6,0.9481190999504179,0.011558199999853969,,,,0,,,,58474,60.0,
,,,0,43,-1,0,0.0969100130080564,0.02621440000000001,,,,,,,,,staircase,434.73799140006304,138.0,2.0,72.0,0.02621440000000001,,,,0,0.43361409998033196,0.012886199983768165,,,,1,,,,58474,60.0,
,,,0,44,-1,0,0.0969100130080564,0.02621440000000001,,,,,,,,,staircase,438.79182010004297,168.0,2.0,72.0,0.02621440000000001,,,,1,1.016134199919179,0.011336799943819642,,,,1,,,,58474,60.0,
,,,0,45,-1,0,0.0969100130080564,0.020971520000000007,,,,,,,,,staircase,444.63430130004417,132.0,2.0,72.0,0.020971520000000007,,,,1,1.1111869999440387,0.011212300043553114,,,,0,,,,58474,60.0,
,,,0,46,-1,0,0.0969100130080564,0.02621440000000001,,,,,,,,,staircase,449.2817216999829,180.0,2.0,72.0,0.02621440000000001,,,,7,0.7904457000549883,0.011506000068038702,,,,1,,,,58474,60.0,
,,,0,47,-1,0,0.0969100130080564,0.02621440000000001,,,,,,,,,staircase,454.384845099994,132.0,2.0,72.0,0.02621440000000001,,,,1,2.721729899989441,0.01194889994803816,,,,1,,,,58474,60.0,
,,,0,48,-1,0,0.0969100130080564,0.020971520000000007,,,,,,,,,staircase,460.6392277000705,168.0,2.0,72.0,0.020971520000000007,,,,7,1.0460378000279889,0.011297799996100366,,,,1,,,,58474,60.0,
,,,0,49,-1,0,0.0969100130080564,0.020971520000000007,,,,,,,,,staircase,466.4509266000241,138.0,2.0,72.0,0.020971520000000007,,,,7,0.4048805000493303,0.011608300032094121,,,,1,,,,58474,60.0,
,,,0,50,-1,0,0.0969100130080564,0.016777216000000005,,,,,,,,,staircase,470.4849532999797,126.0,2.0,72.0,0.016777216000000005,,,,6,0.9536086999578401,0.011701099923811853,,,,0,,,,58474,60.0,
,,,0,51,-1,0,0.0969100130080564,0.020971520000000007,,,,,,,,,staircase,474.86741170007735,168.0,2.0,72.0,0.020971520000000007,,,,0,1.6844055999536067,0.011572299990803003,,,,1,,,,58474,60.0,
,,,0,52,-1,0,0.0969100130080564,0.020971520000000007,,,,,,,,,staircase,480.689624599996,156.0,2.0,72.0,0.020971520000000007,,,,6,0.6580451999325305,0.012574899941682816,,,,1,,,,58474,60.0,
,,,0,53,-1,0,0.0969100130080564,0.016777216000000005,,,,,,,,,staircase,485.3799404000165,174.0,2.0,72.0,0.016777216000000005,,,,0,0.9259772999212146,0.011562699917703867,,,,0,,,,58474,60.0,
,,,0,54,-1,0,0.0969100130080564,0.020971520000000007,,,,,,,,,staircase,490.8841046000598,132.0,2.0,72.0,0.020971520000000007,,,,0,0.4666880000149831,0.011909599998034537,,,,0,,,,58474,60.0,
,,,0,55,-1,0,0.0969100130080564,0.02621440000000001,,,,,,,,,staircase,494.86562370008323,138.0,2.0,72.0,0.02621440000000001,,,,6,0.5865280999569222,0.011449399986304343,,,,1,,,,58474,60.0,
,,,0,56,-1,0,0.0969100130080564,0.02621440000000001,,,,,,,,,staircase,499.08684450003784,168.0,2.0,72.0,0.02621440000000001,,,,6,0.5226653999416158,0.01138599996920675,,,,0,,,,58474,60.0,
,,,0,57,-1,0,0.0969100130080564,0.03276800000000001,,,,,,,,,staircase,503.72304990002885,168.0,2.0,72.0,0.03276800000000001,,,,0,0.9168943000258878,0.01135649997740984,,,,1,,,,58474,60.0,
,,,0,58,-1,0,0.0969100130080564,0.03276800000000001,,,,,,,,,staircase,509.1836044000229,174.0,2.0,72.0,0.03276800000000001,,,,6,1.5130993000930175,0.011556800105609,,,,1,,,,58474,60.0,
,,,0,59,-1,0,0.0969100130080564,0.02621440000000001,,,,,,,,,staircase,514.9309559999965,156.0,2.0,72.0,0.02621440000000001,,,,6,0.5030357999494299,0.011468400014564395,,,,1,,,,58474,60.0,
,,,0,60,-1,0,0.0969100130080564,0.02621440000000001,,,,,,,,,staircase,519.3679958999855,162.0,2.0,72.0,0.02621440000000001,,,,7,0.9661348999943584,0.011480699991807342,,,,1,,,,58474,60.0,
,,,0,61,-1,0,0.0969100130080564,0.020971520000000007,,,,,,,,,staircase,524.3555214999942,132.0,2.0,72.0,0.020971520000000007,,,,6,1.1794906000141054,0.011525999987497926,,,,0,,,,58474,60.0,
,,,0,62,-1,0,0.0969100130080564,0.02621440000000001,,,,,,,,,staircase,529.051417300012,144.0,2.0,72.0,0.02621440000000001,,,,1,1.9946682000299916,0.011410800041630864,,,,1,,,,58474,60.0,
,,,0,63,-1,0,0.0969100130080564,0.02621440000000001,,,,,,,,,staircase,535.2657499000197,150.0,2.0,72.0,0.02621440000000001,,,,0,0.8824775000102818,0.011447399971075356,,,,1,,,,58474,60.0,
,,,0,64,-1,0,0.0969100130080564,0.020971520000000007,,,,,,,,,staircase,539.9658088000724,150.0,2.0,72.0,0.020971520000000007,,,,1,1.5969775000121444,0.011534599936567247,,,,0,,,,58474,60.0,
,,,0,65,-1,0,0.0969100130080564,0.02621440000000001,,,,,,,,,staircase,545.3711402000627,156.0,2.0,72.0,0.02621440000000001,,,,1,0.7237740999553353,0.011489600059576333,,,,0,,,,58474,60.0,
,,,0,66,-1,0,0.0969100130080564,0.03276800000000001,,,,,,,,,staircase,550.0106517000822,168.0,2.0,72.0,0.03276800000000001,,,,6,1.4495730000780895,0.011717000044882298,,,,1,,,,58474,60.0,
,,,0,67,-1,0,0.0969100130080564,0.03276800000000001,,,,,,,,,staircase,556.2165614999831,162.0,2.0,72.0,0.03276800000000001,,,,6,2.238309400039725,0.011580600054003298,,,,0,,,,58474,60.0,
,,,0,68,-1,0,0.0969100130080564,0.04096000000000002,,,,,,,,,staircase,562.4678099000594,162.0,2.0,72.0,0.04096000000000002,,,,7,0.011326599982567132,0.013271800009533763,,,,0,,,,58474,60.0,
,,,0,69,-1,0,0.0969100130080564,0.05120000000000002,,,,,,,,,staircase,566.4962481000694,132.0,2.0,72.0,0.05120000000000002,,,,0,1.9585594999371096,2.0915170999942347,,,,0,,,,58474,60.0,
,,,0,-1,-1,0,,,materials/instructions\11_session_start.png,572.1381414000643,611.8679996000137,0,39.57816380006261,39.72797610005364,0.020501299994066358,39.73596620000899,,,,,,,,,,,,,,,,,,,,58474,60.0,
,,,0,-1,-1,0,,,,,,,,,,,,,,,,,,,,,,,,,,,0.02577899520000001,,,58474,60.0,
-77,-77,90,0,0,0,15,,,,,,,,,,,session,611.8849138000514,156.0,2.0,72.0,0.02577899520000001,2,3.0522838999750093,3.2310868999920785,0,3.502799200010486,3.6520840999437496,0,0.9299404000630602,1.0634330000029877,,,54.0,60.0,58474,60.0,
-77,-77,45,0,1,1,14,,,,,,,,,,,session,625.8158734000754,132.0,2.0,72.0,0.02577899520000001,5,3.8721098999958485,4.05462049995549,0,1.7853151999879628,1.9530558999394998,0,0.9650855000363663,1.1318708000471815,,,66.0,66.0,58474,60.0,
77,77,45,0,2,2,2,,,,,,,,,,,session,638.8079280999955,168.0,2.0,72.0,0.02577899520000001,2,1.8462872999953106,2.014515000046231,0,1.8027369000483304,1.986128699965775,0,2.4349965000292286,2.6026861000573263,,,72.0,66.0,58474,60.0,
-77,77,0,0,3,3,5,,,,,,,,,,,session,652.6024958000053,138.0,2.0,72.0,0.02577899520000001,2,1.7360574000049382,1.9528445999603719,1,3.2862846000352874,3.455695900018327,1,1.9613055000081658,2.115264300024137,,,54.0,51.0,58474,60.0,
-77,77,45,0,4,4,6,,,,,,,,,,,session,665.6529898999725,156.0,2.0,72.0,0.02577899520000001,2,2.643340199952945,2.8100642999634147,7,2.422922100056894,2.640333399991505,6,2.274346200050786,2.4906166000291705,,,54.0,48.0,58474,60.0,
-77,-77,-45,0,5,5,12,,,,,,,,,,,session,679.372332100058,126.0,2.0,72.0,0.02577899520000001,3,3.243989499984309,3.5041150000179186,1,1.5528044999809936,1.7197238999651745,6,4.132720099994913,4.316274499986321,,,69.0,60.0,58474,60.0,
-77,77,-45,0,6,6,4,,,,,,,,,,,session,694.6503577000694,144.0,2.0,72.0,0.02577899520000001,2,1.2875300999730825,1.4541972000151873,1,0.9188382999273017,1.0699083999497816,6,1.8371470000129193,2.0372664000606164,,,60.0,66.0,58474,60.0,
77,-77,0,0,7,7,9,,,,,,,,,,,session,705.1760707000503,132.0,2.0,72.0,0.02577899520000001,4,1.1961705000139773,1.3961481000296772,0,0.8541039999108762,1.02097589999903,1,1.485458500101231,1.6689546999987215,,,69.0,63.0,58474,60.0,
77,77,0,0,8,8,1,,,,,,,,,,,session,715.717095799977,168.0,2.0,72.0,0.02577899520000001,5,1.1713584000244737,1.4038600000785664,0,0.7055359000805765,0.8578348000301048,1,2.002775999950245,2.187027300009504,,,54.0,57.0,58474,60.0,
77,77,-45,0,9,9,0,,,,,,,,,,,session,726.2592536000302,174.0,2.0,72.0,0.02577899520000001,5,2.5293810000875965,2.694604100077413,1,3.073174100019969,3.1902824999997392,1,0.9005942000076175,1.0321225000079721,,,72.0,72.0,58474,60.0,
77,-77,-45,0,10,10,8,,,,,,,,,,,session,740.5852267000591,138.0,2.0,72.0,0.02577899520000001,4,1.0192651000106707,1.1856448999606073,1,1.8854205999523401,2.0522589000174776,1,4.1105751999421045,4.294333199970424,,,48.0,72.0,58474,60.0,
77,77,90,0,11,11,3,,,,,,,,,,,session,753.8671029000543,156.0,2.0,72.0,0.02577899520000001,5,0.9651684999698773,1.1811280000256374,6,1.418442300055176,1.6192431000526994,6,2.4018081999383867,2.602661899989471,,,60.0,63.0,58474,60.0,
-77,77,90,0,12,12,7,,,,,,,,,,,session,765.3886039999779,180.0,2.0,72.0,0.02577899520000001,2,1.3518785999622196,1.5520075999666005,6,1.3688588000368327,1.6142904000589624,6,1.5657270000083372,1.8156130999559537,,,48.0,63.0,58474,60.0,
77,-77,45,0,13,13,10,,,,,,,,,,,session,776.6865270000417,168.0,2.0,72.0,0.02577899520000001,5,2.282509300042875,2.4668379001086578,0,1.4231522999471053,1.6064433000283316,0,0.6832480999873951,0.8009956999449059,,,54.0,69.0,58474,60.0,
-77,-77,0,0,14,14,13,,,,,,,,,,,session,787.8724705000641,180.0,2.0,72.0,0.02577899520000001,5,2.0147613000590354,2.273445700062439,0,1.784020199906081,1.935479799984023,0,0.735980199999176,0.8992309999885038,,,54.0,60.0,58474,60.0,
77,-77,90,0,15,15,11,,,,,,,,,,,session,799.3333603000501,168.0,2.0,72.0,0.02577899520000001,4,1.304266299935989,1.4846131999511272,6,1.9430308000883088,2.0931206999812275,1,1.148311199969612,0.011936899973079562,,,51.0,63.0,58474,60.0,
-77,-77,-45,1,0,16,12,,,,,,,,,,,session,810.2074699000223,174.0,2.0,72.0,0.02577899520000001,3,2.1397228999994695,2.378719599917531,1,1.4849473999347538,1.6692168000154197,6,1.5856321000028402,1.8176564000314102,,,72.0,54.0,58474,60.0,
77,77,0,1,1,17,1,,,,,,,,,,,session,822.5160702000139,138.0,2.0,72.0,0.02577899520000001,5,0.7172514999983832,0.9172212000703439,0,1.0405457000015303,1.2240636999486014,6,1.8892953000031412,2.1397287999279797,,,51.0,57.0,58474,60.0,
-77,-77,0,1,2,18,13,,,,,,,,,,,session,832.3385789999738,162.0,2.0,72.0,0.02577899520000001,3,1.3355179999489337,1.5023820999776945,0,1.2026948999846354,1.3358573999721557,1,3.428008000017144,3.5279807000188157,,,54.0,48.0,58474,60.0,
-77,77,0,1,3,19,5,,,,,,,,,,,session,844.5823253000854,180.0,2.0,72.0,0.02577899520000001,3,2.1502597999060526,2.3159790999488905,0,1.2537735999794677,1.4035754000069574,0,0.7686005000723526,0.9363302000565454,,,51.0,60.0,58474,60.0,
-77,77,0,1,3,19,5,,,materials/instructions\12_break.png,855.576388000045,887.9489210000029,0,32.2030805000104,32.369838000042364,0.014415599987842143,32.37756829999853,,,,,,,,,,,,,,,,,,,,58474,60.0,
77,77,45,1,4,20,2,,,,,,,,,,,session,887.96444910008,138.0,2.0,72.0,0.02577899520000001,5,1.1838916999986395,1.3297160000074655,7,1.6481918999925256,1.8649808999616653,1,1.717565800063312,1.9019801000831649,,,48.0,48.0,58474,60.0,
77,77,90,1,5,21,3,,,,,,,,,,,session,898.4071049999911,156.0,2.0,72.0,0.02577899520000001,5,1.2012322000227869,1.3677809999790043,6,2.462363600032404,2.6512131999479607,1,2.265158799942583,2.3991522999713197,,,54.0,54.0,58474,60.0,
-77,-77,90,1,6,22,15,,,,,,,,,,,session,910.6680323000764,162.0,2.0,72.0,0.02577899520000001,3,0.9338770998874679,1.1164636999601498,6,0.9201292999787256,1.086907200049609,1,1.334410100011155,1.4678595000877976,,,66.0,72.0,58474,60.0,
77,-77,-45,1,7,23,8,,,,,,,,,,,session,920.7898510000668,180.0,2.0,72.0,0.02577899520000001,4,1.1823186000110582,1.298977900063619,1,1.5646998999873176,1.7148422000464052,1,1.2843584000365809,1.4511699000140652,,,60.0,63.0,58474,60.0,
77,-77,0,1,8,24,9,,,,,,,,,,,session,931.7704886000138,150.0,2.0,72.0,0.02577899520000001,4,1.1857032000552863,1.3212074000621215,0,0.7394747000653297,0.9052052000770345,1,1.0679575999965891,1.2347291000187397,,,54.0,69.0,58474,60.0,
-77,77,45,1,9,25,6,,,,,,,,,,,session,941.2377761000535,150.0,2.0,72.0,0.02577899520000001,4,1.2698922000126913,1.4366835000691935,0,0.8723952999571338,1.0248195000458509,0,0.6568942000158131,0.745536100002937,,,69.0,57.0,58474,60.0,
77,77,-45,1,10,26,0,,,,,,,,,,,session,950.5047629000619,132.0,2.0,72.0,0.02577899520000001,5,0.8649129000259563,1.0150050999363884,1,2.385305800009519,2.5369232000084594,1,1.2685841000638902,1.4510402000742033,,,48.0,54.0,58474,60.0,
77,-77,90,1,11,27,11,,,,,,,,,,,session,960.9525598000037,132.0,2.0,72.0,0.02577899520000001,4,1.3307049999712035,1.4628635999979451,6,2.540336399921216,2.7237175999907777,6,0.4808758000144735,0.6587432000087574,,,60.0,72.0,58474,60.0,
77,-77,45,1,12,28,10,,,,,,,,,,,session,971.6308397999965,150.0,2.0,72.0,0.02577899520000001,4,0.8511308000888675,1.0007618000963703,7,2.0185057000489905,2.1861004000529647,1,1.0685359999770299,1.2027817000634968,,,60.0,57.0,58474,60.0,
-77,77,-45,1,13,29,4,,,,,,,,,,,session,982.2363969000289,144.0,2.0,72.0,0.02577899520000001,2,2.422192299971357,2.574596400023438,1,1.069540400058031,1.2188379000872374,1,0.2816342000151053,0.4315779999596998,,,72.0,60.0,58474,60.0,
-77,-77,45,1,14,30,14,,,,,,,,,,,session,992.4942316000815,174.0,2.0,72.0,0.02577899520000001,3,1.6756221000105143,1.857693099998869,7,2.112223400035873,2.311941900057718,7,0.29887860000599176,0.46496109990403056,,,60.0,72.0,58474,60.0,
-77,77,90,1,15,31,7,,,,,,,,,,,session,1004.253817900084,162.0,2.0,72.0,0.02577899520000001,2,1.3070378999691457,1.4879126000450924,6,2.9242356999311596,3.1093985999468714,7,0.37957889994140714,0.5464408999541774,,,54.0,66.0,58474,60.0,
77,77,45,2,0,32,2,,,,,,,,,,,session,1015.5375322999898,156.0,2.0,72.0,0.02577899520000001,5,1.6610464999685064,1.8281667999690399,7,1.2849303000839427,1.4366246000863612,6,0.3335996000096202,0.48374960001092404,,,48.0,72.0,58474,60.0,
-77,-77,90,2,1,33,15,,,,,,,,,,,session,1025.7386383999838,156.0,2.0,72.0,0.02577899520000001,3,1.2634737000335008,1.4135818000650033,6,1.0236929999664426,1.1571302999509498,7,0.30426070000976324,0.47068429994396865,,,57.0,63.0,58474,60.0,
77,-77,45,2,2,34,10,,,,,,,,,,,session,1034.828716600081,150.0,2.0,72.0,0.02577899520000001,5,1.4630526000401005,1.6776900000404567,0,1.5013735999818891,1.636404599994421,0,0.5259121000999585,0.6259178000036627,,,51.0,48.0,58474,60.0,
-77,77,90,2,3,35,7,,,,,,,,,,,session,1045.0037566000829,150.0,2.0,72.0,0.02577899520000001,2,0.8839773000217974,1.0507942000404,6,1.538961200043559,1.6890397999668494,6,3.50398519996088,3.6707099999766797,,,63.0,69.0,58474,60.0,
77,77,0,2,4,36,1,,,,,,,,,,,session,1057.5627789000282,168.0,2.0,72.0,0.02577899520000001,5,1.3108888000715524,1.3794640999985859,0,0.7554771000286564,0.8736789000686258,1,2.4354659999953583,2.521312700002454,,,66.0,69.0,58474,60.0,
77,-77,90,2,5,37,11,,,,,,,,,,,session,1069.405336500029,132.0,2.0,72.0,0.02577899520000001,4,0.8683831000234932,1.0183426000876352,6,1.212715100031346,1.363106600008905,1,1.7994330000365153,1.9319263000506908,,,48.0,63.0,58474,60.0,
-77,-77,0,2,6,38,13,,,,,,,,,,,session,1079.2091455999762,150.0,2.0,72.0,0.02577899520000001,3,0.4607871000189334,0.6110453000292182,0,0.36887900007423013,0.5035796000156552,1,0.7377123000333086,0.9202486000722274,,,54.0,66.0,58474,60.0,
-77,77,-45,2,7,39,4,,,,,,,,,,,session,1087.8183209000854,132.0,2.0,72.0,0.02577899520000001,2,1.116832199972123,1.233755800058134,1,1.9889829000458121,2.105815500020981,1,1.152415500022471,1.252045499975793,,,60.0,51.0,58474,60.0,
-77,77,-45,2,7,39,4,,,materials/instructions\12_break.png,1097.938556900015,1110.0496129000094,0,11.957416699966416,12.109000599943101,0.0193616000469774,12.116428200039081,,,,,,,,,,,,,,,,,,,,58474,60.0,
-77,77,45,2,8,40,6,,,,,,,,,,,session,1110.0652515999973,132.0,2.0,72.0,0.02577899520000001,2,1.479487800039351,1.5977608000393957,0,0.5051298000616953,0.5884242000756785,0,0.05384060007054359,0.1212778000626713,,,54.0,57.0,58474,60.0,
77,77,-45,2,9,41,0,,,,,,,,,,,session,1117.8881077000406,150.0,2.0,72.0,0.02577899520000001,5,2.751793900039047,2.869777699932456,1,1.767710299929604,1.917766600032337,1,0.28312020003795624,0.39618890010751784,,,51.0,60.0,58474,60.0,
77,77,90,2,10,42,3,,,,,,,,,,,session,1128.8679061000003,138.0,2.0,72.0,0.02577899520000001,5,0.731082700076513,0.882307399995625,6,0.8039902000455186,0.970730600063689,7,1.0203591999597847,1.2029266000026837,,,51.0,51.0,58474,60.0,
77,-77,-45,2,11,43,8,,,,,,,,,,,session,1137.3708288000198,174.0,2.0,72.0,0.02577899520000001,4,0.9025241999188438,1.051800699904561,1,0.9026649999432266,1.0683796999510378,1,3.360272099962458,3.4725671999622136,,,57.0,63.0,58474,60.0,
-77,77,0,2,12,44,5,,,,,,,,,,,session,1149.3171196000185,174.0,2.0,72.0,0.02577899520000001,3,2.3053387000691146,2.4553670999594033,0,0.8172003000508994,0.9330728000495583,0,1.1172626999905333,1.317425600020215,,,69.0,60.0,58474,60.0,
77,-77,0,2,13,45,9,,,,,,,,,,,session,1160.6553449999774,174.0,2.0,72.0,0.02577899520000001,4,0.7183799999766052,0.8861905999947339,0,1.4882689999649301,1.654268499929458,0,0.49841680005192757,0.6486083000199869,,,48.0,69.0,58474,60.0,
-77,-77,-45,2,14,46,12,,,,,,,,,,,session,1170.1719046999933,180.0,2.0,72.0,0.02577899520000001,3,1.0033208999084309,1.153289599926211,1,1.0062039999756962,1.2063387000234798,1,0.011595600051805377,0.013606699998490512,,,66.0,48.0,58474,60.0,
-77,-77,45,2,15,47,14,,,,,,,,,,,session,1179.2842707000673,150.0,2.0,72.0,0.02577899520000001,2,4.090418199892156,4.238825999898836,0,0.7063163000857458,0.8397435999941081,0,0.31818129995372146,0.4683297999436036,,,51.0,60.0,58474,60.0,
-77,-77,-45,3,0,48,12,,,,,,,,,,,session,1190.6273804000812,180.0,2.0,72.0,0.02577899520000001,3,1.0132511999690905,1.1611634999280795,1,2.5408479999750853,2.742045999970287,7,2.053114900016226,0.011200499953702092,,,54.0,63.0,58474,60.0,
77,-77,-45,3,1,49,8,,,,,,,,,,,session,1203.5094710000558,156.0,2.0,72.0,0.02577899520000001,4,1.4377838999498636,1.5517029999755323,1,0.8589939000084996,1.0087170999031514,7,0.8481486999662593,1.000780800008215,,,51.0,66.0,58474,60.0,
77,77,0,3,2,50,1,,,,,,,,,,,session,1213.080596200074,126.0,2.0,72.0,0.02577899520000001,5,0.37943049997556955,0.5474261000053957,0,0.7343357999343425,0.8676038000266999,7,1.052999300067313,1.2026970000006258,,,57.0,69.0,58474,60.0,
77,-77,90,3,3,51,11,,,,,,,,,,,session,1221.9399466000032,132.0,2.0,72.0,0.02577899520000001,5,1.0528605999425054,1.203089699964039,0,2.2057192999636754,2.339170299936086,0,0.31825360003858805,0.451874400023371,,,51.0,66.0,58474,60.0,
-77,77,0,3,4,52,5,,,,,,,,,,,session,1231.5417189999716,144.0,2.0,72.0,0.02577899520000001,2,0.5262390000279993,0.6240534000098705,0,0.3324026999762282,0.4660411999793723,1,0.2667254999978468,0.4001331999897957,,,60.0,72.0,58474,60.0,
77,77,90,3,5,53,3,,,,,,,,,,,session,1239.0896580000408,126.0,2.0,72.0,0.02577899520000001,5,0.6377575000515208,0.8200720000313595,6,0.9547660000389442,1.1041759999934584,1,2.483871500007808,2.635341699933633,,,54.0,57.0,58474,60.0,
-77,77,90,3,6,54,7,,,,,,,,,,,session,1249.0558255000506,174.0,2.0,72.0,0.02577899520000001,2,0.4491963000036776,0.5830935999983922,6,1.0737998000113294,1.2251790000591427,7,0.276559800026007,0.4248361000791192,,,48.0,69.0,58474,60.0,
-77,-77,0,3,7,55,13,,,,,,,,,,,session,1257.599009700003,138.0,2.0,72.0,0.02577899520000001,3,0.5922497001010925,0.7604843000881374,0,0.48518820002209395,0.6685195000609383,0,0.011105000041425228,0.012998600024729967,,,51.0,63.0,58474,60.0,
-77,77,-45,3,8,56,4,,,,,,,,,,,session,1265.346081100055,132.0,2.0,72.0,0.02577899520000001,2,1.8896407999563962,2.0566975999390706,1,46.43941560003441,46.52191790007055,1,2.5806122000794858,2.664043900091201,,,63.0,57.0,58474,60.0,
-77,77,45,3,9,57,6,,,,,,,,,,,session,1322.245797600015,150.0,2.0,72.0,0.02577899520000001,2,2.804046200006269,2.923953099991195,7,1.866519600036554,1.9483987999847159,1,6.038557399995625,6.138574299984612,,,69.0,63.0,58474,60.0,
77,-77,0,3,10,58,9,,,,,,,,,,,session,1339.9096759000095,180.0,2.0,72.0,0.02577899520000001,2,1.8024797000689432,1.9196543000871316,0,1.5957231000065804,1.7090592000167817,0,0.7032207999145612,0.8371846999507397,,,54.0,48.0,58474,60.0,
77,-77,45,3,11,59,10,,,,,,,,,,,session,1350.5233178000199,162.0,2.0,72.0,0.02577899520000001,5,0.8295918999938294,0.9631146000465378,0,0.9319537000264972,1.081919000018388,0,1.5227280999533832,1.6562243000371382,,,51.0,66.0,58474,60.0,
77,-77,45,3,11,59,10,,,materials/instructions\12_break.png,1360.3664407000178,1388.025116099976,0,27.573227899963968,27.65659659996163,0.0245191000867635,27.664381699985825,,,,,,,,,,,,,,,,,,,,58474,60.0,
-77,-77,45,3,12,60,14,,,,,,,,,,,session,1388.0407169000246,156.0,2.0,72.0,0.02577899520000001,3,2.3482607000041753,2.434235099935904,7,1.3519020000239834,1.437706399941817,1,1.4471988000441343,1.563876000000164,,,48.0,57.0,58474,60.0,
-77,-77,90,3,13,61,15,,,,,,,,,,,session,1399.7874450000236,144.0,2.0,72.0,0.02577899520000001,3,0.33498609997332096,0.486761000007391,6,1.0391828999854624,1.1544364999281242,6,0.3201623000204563,0.4012034999905154,,,48.0,54.0,58474,60.0,
77,77,-45,3,14,62,0,,,,,,,,,,,session,1407.3764671999961,126.0,2.0,72.0,0.02577899520000001,5,1.502736399997957,1.6030218000523746,1,2.021674899966456,2.1078967000357807,1,1.2661706000799313,1.3661546000512317,,,60.0,69.0,58474,60.0,
77,77,45,3,15,63,2,,,,,,,,,,,session,1418.152841300005,132.0,2.0,72.0,0.02577899520000001,5,1.2819108999101445,1.379653099924326,1,2.738831300055608,2.8377762000309303,1,1.4707820999901742,1.5711797999683768,,,63.0,51.0,58474,60.0,
77,77,0,4,0,64,1,,,,,,,,,,,session,1429.4935725000687,138.0,2.0,72.0,0.02577899520000001,5,0.5030833999626338,0.6367528999689966,0,1.0014613000676036,1.1352241000859067,7,0.694540899945423,0.8324480999726802,,,66.0,63.0,58474,60.0,
-77,-77,90,4,1,65,15,,,,,,,,,,,session,1438.0075545000145,126.0,2.0,72.0,0.02577899520000001,3,1.0323737000580877,1.1647714000428095,6,1.5354389999993145,1.6384253000142053,7,3.2528671000618488,3.3714625000720844,,,60.0,60.0,58474,60.0,
77,-77,-45,4,2,66,8,,,,,,,,,,,session,1449.744088400039,162.0,2.0,72.0,0.02577899520000001,4,1.1764937000116333,1.2933328000362962,1,1.5880124000832438,1.7431439000647515,1,5.19908590009436,5.316033700015396,,,57.0,69.0,58474,60.0,
77,-77,45,4,3,67,10,,,,,,,,,,,session,1464.3915288000135,168.0,2.0,72.0,0.02577899520000001,4,2.6476743000093848,2.781072299927473,7,1.3209659999702126,1.4717333000153303,1,0.9721329000312835,1.0730355000123382,,,72.0,48.0,58474,60.0,
-77,77,45,4,4,68,6,,,,,,,,,,,session,1475.9792270000326,156.0,2.0,72.0,0.02577899520000001,2,4.133353699930012,4.299730599974282,0,0.011936699971556664,0.06832479999866337,0,0.3130187999922782,0.3796221000375226,,,72.0,72.0,58474,60.0,
-77,-77,0,4,5,69,13,,,,,,,,,,,session,1487.5538721000776,138.0,2.0,72.0,0.02577899520000001,3,0.584947400027886,0.7190243999939412,0,0.9270180000457913,1.0105114000616595,1,0.31951840000692755,0.41939659998752177,,,54.0,57.0,58474,60.0,
77,-77,0,4,6,70,9,,,,,,,,,,,session,1495.2917825999903,126.0,2.0,72.0,0.02577899520000001,4,0.6835487999487668,0.8504191999090835,0,1.5766663000686094,1.7476986000547186,1,0.7492669000057504,0.8341166999889538,,,51.0,72.0,58474,60.0,
77,77,-45,4,7,71,0,,,,,,,,,,,session,1504.3379302000394,126.0,2.0,72.0,0.02577899520000001,5,0.8997167999623343,1.015424899989739,1,2.0192525000311434,2.1536767000798136,1,1.4161963999504223,1.4839040999067947,,,63.0,69.0,58474,60.0,
-77,77,-45,4,8,72,4,,,,,,,,,,,session,1514.7581252000527,132.0,2.0,72.0,0.02577899520000001,2,0.45137999998405576,0.6013252000557259,1,1.685759300016798,1.8029777000192553,7,0.49232439999468625,0.5480512999929488,,,72.0,66.0,58474,60.0,
-77,-77,-45,4,9,73,12,,,,,,,,,,,session,1523.657313200063,138.0,2.0,72.0,0.02577899520000001,3,0.3132917999755591,0.4298632999416441,1,2.7552600000053644,2.8721076999790967,1,0.31404990004375577,0.3649245999986306,,,54.0,63.0,58474,60.0,
77,77,45,4,10,74,2,,,,,,,,,,,session,1533.502476900001,150.0,2.0,72.0,0.02577899520000001,5,0.4312213999219239,0.5630282999482006,7,6.92866520001553,7.051145200035535,1,0.30659510008990765,0.4076764000346884,,,54.0,57.0,58474,60.0,
-77,77,90,4,11,75,7,,,,,,,,,,,session,1547.3414685999742,132.0,2.0,72.0,0.02577899520000001,2,1.3215942999813706,1.4718263000249863,6,1.4170601000078022,1.6178494000341743,6,1.936442599981092,2.036560400039889,,,60.0,63.0,58474,60.0,
-77,-77,45,4,12,76,14,,,,,,,,,,,session,1558.2245412999764,138.0,2.0,72.0,0.02577899520000001,3,1.8372995000099763,1.9708709999686107,7,1.0270594999892637,1.1584089000243694,6,1.1895095000509173,1.294999200035818,,,69.0,51.0,58474,60.0,
77,-77,90,4,13,77,11,,,,,,,,,,,session,1568.3906804000726,156.0,2.0,72.0,0.02577899520000001,4,0.9594449000433087,1.1427810000022873,7,2.019882799941115,2.153132400009781,0,0.8349835000699386,0.9184043999994174,,,69.0,69.0,58474,60.0,
-77,77,0,4,14,78,5,,,,,,,,,,,session,1579.256927600014,144.0,2.0,72.0,0.02577899520000001,2,1.8536697999807075,1.9881322999717668,0,0.5885220000054687,0.707749400055036,0,0.3398855999112129,0.38848969992250204,,,60.0,54.0,58474,60.0,
77,77,90,4,15,79,3,,,,,,,,,,,session,1588.0787973999977,126.0,2.0,72.0,0.02577899520000001,5,1.0751950000412762,1.2449931999435648,6,1.13774709997233,1.2693202999653295,1,1.284578499966301,1.3824968999251723,,,63.0,54.0,58474,60.0,
77,77,90,4,15,79,3,,,materials/instructions\12_break.png,1598.004605300026,1650.3411628999747,0,52.218000299995765,52.334731399896555,0.017920300015248358,52.34254769992549,,,,,,,,,,,,,,,,,,,,58474,60.0,
77,77,0,5,0,80,1,,,,,,,,,,,session,1650.3572166999802,144.0,2.0,72.0,0.02577899520000001,5,0.5959709000308067,0.762585400021635,0,0.720731700072065,0.8288710999768227,1,0.7686883999267593,0.9015527999727055,,,48.0,57.0,58474,60.0,
77,-77,0,5,1,81,9,,,,,,,,,,,session,1658.4584399000742,180.0,2.0,72.0,0.02577899520000001,4,0.2983846999704838,0.4482707000570372,0,0.4862032999517396,0.6195285000139847,1,0.28423179988749325,0.4011101999785751,,,48.0,72.0,58474,60.0,
77,-77,45,5,2,82,10,,,,,,,,,,,session,1666.392411399982,150.0,2.0,72.0,0.02577899520000001,5,0.8678094999631867,1.001671899924986,0,0.011381799937225878,0.013308899942785501,0,0.7311137999640778,0.8309437999268994,,,72.0,54.0,58474,60.0,
77,77,45,5,3,83,2,,,,,,,,,,,session,1674.2798523000674,132.0,2.0,72.0,0.02577899520000001,5,0.6944799000630155,0.8721132000209764,7,1.3075710999546573,1.4412404999602586,1,0.7329002999467775,0.8836485999636352,,,60.0,54.0,58474,60.0,
77,-77,-45,5,4,84,8,,,,,,,,,,,session,1683.022027399973,180.0,2.0,72.0,0.02577899520000001,5,0.9466378000797704,1.0808608999941498,0,0.9360485000070184,1.0529250000836328,0,0.23577999998815358,0.36930499994196,,,57.0,63.0,58474,60.0,
-77,77,45,5,5,85,6,,,,,,,,,,,session,1691.9912375999847,156.0,2.0,72.0,0.02577899520000001,2,2.3685553999384865,2.4852947000181302,7,1.1536390000255778,1.2928496999666095,6,2.166008200030774,2.279824999975972,,,48.0,48.0,58474,60.0,
77,-77,90,5,6,86,11,,,,,,,,,,,session,1703.7052545000333,144.0,2.0,72.0,0.02577899520000001,4,0.4047633999725804,0.571542700054124,6,1.222146200016141,1.351712700095959,7,0.3012467999942601,0.46785160002764314,,,54.0,69.0,58474,60.0,
-77,-77,-45,5,7,87,12,,,,,,,,,,,session,1712.007843600004,174.0,2.0,72.0,0.02577899520000001,3,2.8541943000163883,3.0208489999640733,1,3.2968789000296965,3.4465472999727353,1,1.0966818999731913,1.1770535999676213,,,57.0,69.0,58474,60.0,
-77,77,-45,5,8,88,4,,,,,,,,,,,session,1726.091089499998,174.0,2.0,72.0,0.02577899520000001,2,1.6350242999615148,1.7856153999455273,1,0.7065365999005735,0.8064293999923393,7,5.6217118999920785,5.755007900064811,,,51.0,60.0,58474,60.0,
-77,-77,90,5,9,89,15,,,,,,,,,,,session,1740.646396300057,138.0,2.0,72.0,0.02577899520000001,3,0.2834207999985665,0.4502682000165805,6,1.0586844999343157,1.1922832999844104,7,0.632121599977836,0.7516307999612764,,,57.0,60.0,58474,60.0,
77,77,90,5,10,90,3,,,,,,,,,,,session,1748.8242112000007,156.0,2.0,72.0,0.02577899520000001,5,0.9340670000528917,1.1339833999518305,6,0.6532358999829739,0.8199246999574825,7,1.903013899922371,2.072395599912852,,,57.0,69.0,58474,60.0,
77,77,-45,5,11,91,0,,,,,,,,,,,session,1759.0303623999935,138.0,2.0,72.0,0.02577899520000001,5,0.7003183000488207,0.8003571000881493,1,1.2962799000088125,1.4624376000138,6,2.478925700066611,2.5660193000221625,,,51.0,54.0,58474,60.0,
-77,-77,0,5,12,92,13,,,,,,,,,,,session,1769.3594114000443,168.0,2.0,72.0,0.02577899520000001,3,0.6331257000565529,0.7532335000578314,0,0.4217641999712214,0.5551620000042021,1,2.0824741000542417,2.1994784000562504,,,48.0,69.0,58474,60.0,
-77,77,0,5,13,93,5,,,,,,,,,,,session,1779.07424300001,168.0,2.0,72.0,0.02577899520000001,2,0.48394519998691976,0.6360889999195933,0,0.5997561999829486,0.766516099916771,1,2.2761998999631032,2.409528899937868,,,51.0,63.0,58474,60.0,
-77,77,90,5,14,94,7,,,,,,,,,,,session,1789.0420815000543,168.0,2.0,72.0,0.02577899520000001,2,0.9977766000665724,1.1645324000855908,6,0.7547150000464171,0.9202518000965938,1,0.21690800006035715,0.36702980007976294,,,57.0,57.0,58474,60.0,
-77,-77,45,5,15,95,14,,,,,,,,,,,session,1798.0756809000159,132.0,2.0,72.0,0.02577899520000001,4,0.8216013999190181,0.9886304999236017,0,0.723803999950178,0.8743643999332562,0,0.27192629990167916,0.41925529995933175,,,60.0,57.0,58474,60.0,
-77,77,0,6,0,96,5,,,,,,,,,,,session,1805.948437300045,180.0,2.0,72.0,0.02577899520000001,2,0.8782750000245869,1.0784359000390396,6,3.355072999955155,3.455269700032659,0,0.41623400000389665,0.5333852999610826,,,63.0,51.0,58474,60.0,
-77,-77,-45,6,1,97,12,,,,,,,,,,,session,1817.4072905000066,150.0,2.0,72.0,0.02577899520000001,3,0.7816282999701798,0.9160640999907628,1,2.8058144999668,2.9211839999770746,1,1.0789660000009462,1.2624608000041917,,,51.0,48.0,58474,60.0,
77,-77,-45,6,2,98,8,,,,,,,,,,,session,1828.0953754000366,132.0,2.0,72.0,0.02577899520000001,4,1.1967626999830827,1.3482991000637412,7,0.6777622000081465,0.7808080000104383,1,0.5790246999822557,0.7624278999865055,,,72.0,72.0,58474,60.0,
-77,-77,0,6,3,99,13,,,,,,,,,,,session,1837.0215465000365,162.0,2.0,72.0,0.02577899520000001,3,0.5732463999884203,0.7251686999807134,0,0.6352783000329509,0.7840721000684425,1,0.2671740000369027,0.4013725999975577,,,69.0,66.0,58474,60.0,
-77,-77,0,6,3,99,13,,,materials/instructions\12_break.png,1845.3380614999915,1892.3584684000816,0,46.91836420004256,47.01828880002722,0.02157199999783188,47.02585570001975,,,,,,,,,,,,,,,,,,,,58474,60.0,
77,-77,45,6,4,100,10,,,,,,,,,,,session,1892.3738975999877,138.0,2.0,72.0,0.02577899520000001,2,4.074635500088334,4.187014100025408,0,0.31340099999215454,0.41462689999025315,0,0.3133523999713361,0.48250919999554753,,,48.0,57.0,58474,60.0,
77,77,-45,6,5,101,0,,,,,,,,,,,session,1903.0077229000162,132.0,2.0,72.0,0.02577899520000001,5,0.9333397999871522,1.0334369000047445,1,1.6048361998982728,1.786633399897255,7,0.10207120003178716,0.3359797999728471,,,57.0,63.0,58474,60.0,
77,77,90,6,6,102,3,,,,,,,,,,,session,1911.824541100068,150.0,2.0,72.0,0.02577899520000001,5,0.4865421000868082,0.620587500045076,6,0.3033751000184566,0.4544446000363678,1,0.2866779000032693,0.4046243999619037,,,72.0,72.0,58474,60.0,
-77,-77,90,6,7,103,15,,,,,,,,,,,session,1919.6519093000097,180.0,2.0,72.0,0.02577899520000001,3,0.6269378000870347,0.7785043000476435,6,0.468823799979873,0.6356846999842674,1,0.9854367999359965,1.1854840000160038,,,51.0,54.0,58474,60.0,
-77,77,45,6,8,104,6,,,,,,,,,,,session,1929.1077669999795,174.0,2.0,72.0,0.02577899520000001,2,1.4827328999526799,1.6495351999765262,7,1.5918406000128016,1.7093834999250248,7,0.2432915000244975,0.3759584000799805,,,72.0,60.0,58474,60.0,
-77,77,90,6,9,105,7,,,,,,,,,,,session,1939.3808153000427,162.0,2.0,72.0,0.02577899520000001,2,0.7455259000416845,0.9459810999687761,6,0.43665349995717406,0.6165847999509424,1,0.031166700064204633,0.18147450010292232,,,63.0,72.0,58474,60.0,
-77,-77,45,6,10,106,14,,,,,,,,,,,session,1947.7212073000846,156.0,2.0,72.0,0.02577899520000001,2,0.8484110999852419,0.9831436999375001,1,1.1893933999817818,1.3730558999814093,0,0.43769419996533543,0.636822999920696,,,72.0,63.0,58474,60.0,
77,77,0,6,11,107,1,,,,,,,,,,,session,1957.026149500045,144.0,2.0,72.0,0.02577899520000001,5,1.3682888998882845,1.4843037999235094,0,0.3200559000251815,0.5049054000992328,6,0.07170349999796599,0.22246760001871735,,,69.0,66.0,58474,60.0,
77,-77,0,6,12,108,9,,,,,,,,,,,session,1965.333803800051,168.0,2.0,72.0,0.02577899520000001,4,1.098331999965012,1.2137345999944955,0,0.6835885999025777,0.9156786999665201,0,0.853885899996385,0.9703839999856427,,,72.0,66.0,58474,60.0,
77,-77,90,6,13,109,11,,,,,,,,,,,session,1975.525274900021,132.0,2.0,72.0,0.02577899520000001,4,0.8251402999740094,0.9060038999887183,6,1.8460048000561073,1.9789257000666112,6,0.14085029996931553,0.2709470000118017,,,69.0,66.0,58474,60.0,
77,77,45,6,14,110,2,,,,,,,,,,,session,1984.5668533999706,162.0,2.0,72.0,0.02577899520000001,5,2.180316200014204,2.3163138000527397,7,1.1022586999461055,1.336111000040546,1,9.78190679999534,9.93295379995834,,,66.0,48.0,58474,60.0,
-77,77,-45,6,15,111,4,,,,,,,,,,,session,2004.7829384000506,126.0,2.0,72.0,0.02577899520000001,2,1.0980788000160828,1.2562920999480411,1,8.352403600001708,8.551558000035584,1,4.705408800044097,4.838860200019553,,,66.0,60.0,58474,60.0,
-77,-77,-45,7,0,112,12,,,,,,,,,,,session,2025.111368700047,162.0,2.0,72.0,0.02577899520000001,4,0.7170761999441311,0.8839189999271184,0,0.72806950006634,0.861142500070855,0,0.01097000006120652,0.012896500062197447,,,66.0,69.0,58474,60.0,
77,77,90,7,1,113,3,,,,,,,,,,,session,2033.257793799974,150.0,2.0,72.0,0.02577899520000001,5,0.7019240000518039,0.8519339000340551,6,0.5178152000298724,0.7031568000093102,1,0.5049613999435678,0.7034225999377668,,,63.0,54.0,58474,60.0,
77,77,45,7,2,114,2,,,,,,,,,,,session,2041.5095958000747,150.0,2.0,72.0,0.02577899520000001,5,0.7541192000498995,0.8876698000822216,7,1.0635427000233904,1.3469317000126466,1,10.39086170005612,10.473262300016358,,,66.0,51.0,58474,60.0,
-77,-77,0,7,3,115,13,,,,,,,,,,,session,2060.093564299983,156.0,2.0,72.0,0.02577899520000001,3,1.111909000086598,1.2787300000200048,0,2.1054353000363335,2.2722910000011325,1,4.773816299973987,4.9071431999327615,,,51.0,48.0,58474,60.0,
-77,-77,45,7,4,116,14,,,,,,,,,,,session,2074.2663579999935,156.0,2.0,72.0,0.02577899520000001,3,1.063333100057207,1.1937453000573441,7,1.1034550000913441,1.3035541999852285,1,5.767447500023991,5.968667200068012,,,72.0,69.0,58474,60.0,
77,-77,-45,7,5,117,8,,,,,,,,,,,session,2089.7124318999704,126.0,2.0,72.0,0.02577899520000001,4,2.94642049993854,3.078980699996464,0,0.461183299892582,0.6288469999562949,0,0.7254502999130636,0.8795624999329448,,,72.0,51.0,58474,60.0,
-77,-77,90,7,6,118,15,,,,,,,,,,,session,2099.910283299978,126.0,2.0,72.0,0.02577899520000001,3,0.4689386000391096,0.6366186999948695,6,1.3339682000223547,1.516925000003539,0,0.8558680999558419,1.0393970999866724,,,72.0,54.0,58474,60.0,
-77,77,0,7,7,119,5,,,,,,,,,,,session,2108.8094314000336,156.0,2.0,72.0,0.02577899520000001,2,1.3582987000700086,1.4901329000713304,0,1.7678337999386713,1.9509893999202177,1,1.1950881999218836,1.32213599991519,,,48.0,63.0,58474,60.0,
-77,77,0,7,7,119,5,,,materials/instructions\12_break.png,2119.484714500024,2132.5582271000603,0,12.854585899971426,13.071459800004959,0.01688160002231598,13.079255699994974,,,,,,,,,,,,,,,,,,,,58474,60.0,
77,-77,0,7,8,120,9,,,,,,,,,,,session,2132.574208899983,162.0,2.0,72.0,0.02577899520000001,4,0.27325770002789795,0.3904449000256136,0,1.389038399909623,1.5226754999021068,1,3.9902497000293806,4.140443200012669,,,66.0,51.0,58474,60.0,
77,-77,45,7,9,121,10,,,,,,,,,,,session,2144.7272208000068,162.0,2.0,72.0,0.02577899520000001,4,1.719038600102067,1.851601800066419,7,1.074760299990885,1.241566300042905,1,0.7666234999196604,0.9333785999333486,,,48.0,66.0,58474,60.0,
-77,77,45,7,10,122,6,,,,,,,,,,,session,2154.826339000021,144.0,2.0,72.0,0.02577899520000001,2,1.3964572000550106,1.4964314000681043,7,0.5534379999153316,0.7354086999548599,6,2.4105497000273317,2.5886966000543907,,,48.0,51.0,58474,60.0,
77,77,-45,7,11,123,0,,,,,,,,,,,session,2165.122474199976,144.0,2.0,72.0,0.02577899520000001,5,0.8115691000130028,0.9447448999853805,1,1.2348142999690026,1.4016485000029206,6,1.0302111000055447,1.1971442000940442,,,72.0,72.0,58474,60.0,
77,77,0,7,12,124,1,,,,,,,,,,,session,2175.276845299988,144.0,2.0,72.0,0.02577899520000001,5,0.3018283999990672,0.40272309991996735,0,0.8881315999897197,1.0550246000057086,7,0.3984301999444142,0.5662067999364808,,,72.0,72.0,58474,60.0,
-77,77,90,7,13,125,7,,,,,,,,,,,session,2183.5480880000396,132.0,2.0,72.0,0.02577899520000001,2,0.9239533001091331,1.0574604000430554,6,0.45053470006678253,0.6005651999730617,7,2.6844817000674084,2.8844536000397056,,,63.0,48.0,58474,60.0,
-77,77,-45,7,14,126,4,,,,,,,,,,,session,2193.960398300085,132.0,2.0,72.0,0.02577899520000001,2,0.9836222999729216,1.1334390999982134,1,1.4389115000376478,1.637365399976261,7,0.3179205000633374,0.5013291999930516,,,60.0,54.0,58474,60.0,
77,-77,90,7,15,127,11,,,,,,,,,,,session,2202.7810529000126,150.0,2.0,72.0,0.02577899520000001,4,0.5000674000475556,0.5991788000101224,6,1.0020413999445736,1.135277000023052,1,0.2653400000417605,0.447040900005959,,,69.0,72.0,58474,60.0,
77,77,90,8,0,128,3,,,,,,,,,,,session,2211.2596178000094,126.0,2.0,72.0,0.02577899520000001,5,0.8532225999515504,0.9682295999955386,0,0.8343374999240041,1.1021720999851823,0,0.21749349997844547,0.4010188999818638,,,54.0,69.0,58474,60.0,
-77,77,90,8,1,129,7,,,,,,,,,,,session,2219.325912500033,180.0,2.0,72.0,0.02577899520000001,2,1.0550773000577465,1.238519600010477,6,1.1861831999849528,1.3035159000428393,1,4.425908399978653,4.575574200018309,,,72.0,51.0,58474,60.0,
-77,-77,90,8,2,130,15,,,,,,,,,,,session,2232.940260100062,156.0,2.0,72.0,0.02577899520000001,2,2.6836238000541925,2.8168817000696436,0,3.7695067999884486,3.9023335999809206,0,1.3170946999453008,1.4503453999059275,,,51.0,60.0,58474,60.0,
-77,-77,45,8,3,131,14,,,,,,,,,,,session,2247.0301266000606,138.0,2.0,72.0,0.02577899520000001,5,1.1662965000141412,1.3165139000630006,6,2.083688799990341,2.2176931999856606,0,0.23376530001405627,0.4175618999870494,,,66.0,60.0,58474,60.0,
-77,-77,-45,8,4,132,12,,,,,,,,,,,session,2256.8426936999895,126.0,2.0,72.0,0.02577899520000001,3,0.5819634000072256,0.7492185999872163,1,1.628472900018096,1.8302663000067696,0,0.3349183000391349,0.5185101999668404,,,69.0,60.0,58474,60.0,
-77,-77,0,8,5,133,13,,,,,,,,,,,session,2265.6612531000283,138.0,2.0,72.0,0.02577899520000001,3,0.6917948999907821,0.8416422998998314,0,0.6608169000828639,0.8270858000032604,7,0.26545330008957535,0.4155852000694722,,,60.0,69.0,58474,60.0,
77,77,0,8,6,134,1,,,,,,,,,,,session,2273.633806500002,138.0,2.0,72.0,0.02577899520000001,5,0.6137528999242932,0.8093745999503881,0,1.4173761999700218,1.5832316000014544,1,1.1128535000607371,1.2795743000460789,,,54.0,57.0,58474,60.0,
77,-77,90,8,7,135,11,,,,,,,,,,,session,2283.475786200026,162.0,2.0,72.0,0.02577899520000001,2,2.03729949996341,2.2041001999750733,1,0.7230272000888363,0.904054900049232,0,0.9843866999726743,1.1513076999690384,,,51.0,57.0,58474,60.0,
77,77,45,8,8,136,2,,,,,,,,,,,session,2293.684104199987,144.0,2.0,72.0,0.02577899520000001,5,0.012266700039617717,0.08235120004974306,7,0.9199857999337837,1.099962499924004,1,0.23573359998408705,0.38436090003233403,,,63.0,60.0,58474,60.0,
77,77,-45,8,9,137,0,,,,,,,,,,,session,2301.5108020000625,144.0,2.0,72.0,0.02577899520000001,4,0.5973823999520391,0.7482390999794006,1,0.9025722000515088,1.101867499994114,0,0.46891169995069504,0.6690322000067681,,,69.0,63.0,58474,60.0,
77,-77,45,8,10,138,10,,,,,,,,,,,session,2310.0981795000844,174.0,2.0,72.0,0.02577899520000001,4,0.7175379999680445,0.8681399000342935,1,0.6189977000467479,0.8026220999890938,0,1.5574459000490606,1.7541335000423715,,,57.0,54.0,58474,60.0,
77,-77,0,8,11,139,9,,,,,,,,,,,session,2319.71827870002,126.0,2.0,72.0,0.02577899520000001,4,0.6418882999569178,0.7753281999612227,0,1.69042040000204,1.9404818000039086,6,1.8576310001080856,2.057662000064738,,,69.0,72.0,58474,60.0,
77,-77,0,8,11,139,9,,,materials/instructions\12_break.png,2330.7232361000497,2342.3185131000355,0,11.414720400003716,11.593277800013311,0.021964099956676364,11.606097299954854,,,,,,,,,,,,,,,,,,,,58474,60.0,
-77,77,-45,8,12,140,4,,,,,,,,,,,session,2342.339752400061,174.0,2.0,72.0,0.02577899520000001,2,0.8135833999840543,0.930642000050284,1,2.003546699997969,2.1195387999759987,6,4.107240000041202,4.2573021000716835,,,66.0,57.0,58474,60.0,
77,-77,-45,8,13,141,8,,,,,,,,,,,session,2356.2974340000656,180.0,2.0,72.0,0.02577899520000001,2,2.162193499971181,2.3117828000104055,0,0.7956684000091627,0.9845004000235349,0,0.5159328000154346,0.716177299967967,,,66.0,51.0,58474,60.0,
-77,77,0,8,14,142,5,,,,,,,,,,,session,2366.725648600026,132.0,2.0,72.0,0.02577899520000001,2,0.2359089000383392,0.3857421000720933,0,0.6348753999918699,0.768811900052242,7,0.35282539995387197,0.554107099887915,,,69.0,51.0,58474,60.0,
-77,77,45,8,15,143,6,,,,,,,,,,,session,2374.094529299997,132.0,2.0,72.0,0.02577899520000001,2,1.488471299991943,1.6384648999664932,7,1.686902999994345,1.8369518000399694,7,1.337096199975349,1.5045885998988524,,,66.0,57.0,58474,60.0,
77,77,45,9,0,144,2,,,,,,,,,,,session,2384.7700404999778,144.0,2.0,72.0,0.02577899520000001,5,0.32543859991710633,0.4437817999860272,7,0.6702587000327185,0.8359237000113353,7,0.48286780004855245,0.6318444000789896,,,60.0,69.0,58474,60.0,
-77,-77,90,9,1,145,15,,,,,,,,,,,session,2393.327447900083,174.0,2.0,72.0,0.02577899520000001,3,1.3010578999528661,1.4347582999616861,6,0.5518697999650612,0.6693895000498742,1,1.6183568000560626,1.8209217000985518,,,66.0,57.0,58474,60.0,
77,77,90,9,2,146,3,,,,,,,,,,,session,2403.6526272000046,156.0,2.0,72.0,0.02577899520000001,5,0.6644727999810129,0.7970491999294609,6,0.7904089000076056,0.9398449999280274,1,1.6138115000212565,1.7638959999894723,,,66.0,57.0,58474,60.0,
-77,77,90,9,3,147,7,,,,,,,,,,,session,2413.5763481999747,156.0,2.0,72.0,0.02577899520000001,2,0.7825803000014275,0.932247000047937,6,0.4548575000371784,0.5736323000164703,1,0.7182235999498516,0.80055409995839,,,48.0,48.0,58474,60.0,
-77,77,45,9,4,148,6,,,,,,,,,,,session,2421.530554200057,180.0,2.0,72.0,0.02577899520000001,3,3.395954299950972,3.52290959993843,6,0.9337511999765411,1.0996699999086559,0,0.27977579995058477,0.48008439992554486,,,60.0,51.0,58474,60.0,
-77,-77,0,9,5,149,13,,,,,,,,,,,session,2432.9429004000267,162.0,2.0,72.0,0.02577899520000001,4,1.482672999962233,1.5998629999812692,7,1.0891867999453098,1.2893749999348074,0,0.506336799939163,0.7229065999854356,,,63.0,48.0,58474,60.0,
-77,77,0,9,6,150,5,,,,,,,,,,,session,2442.5623895999743,180.0,2.0,72.0,0.02577899520000001,2,0.9265742000425234,1.0761265000328422,0,0.8867299999110401,1.0036141999298707,0,0.5582137999590486,0.647644400014542,,,51.0,69.0,58474,60.0,
77,-77,-45,9,7,151,8,,,,,,,,,,,session,2451.746077500051,150.0,2.0,72.0,0.02577899520000001,3,1.6151759999338537,1.7320623999694362,0,2.0869476000079885,2.2696730999741703,0,0.9670319000724703,1.1837224999908358,,,57.0,54.0,58474,60.0,
77,77,0,9,8,152,1,,,,,,,,,,,session,2463.162283300073,180.0,2.0,72.0,0.02577899520000001,5,0.2807244999567047,0.43079669994767755,0,0.5551749001024291,0.7219560000812635,7,0.7914659000234678,1.0074884000932798,,,54.0,63.0,58474,60.0,
-77,-77,-45,9,9,153,12,,,,,,,,,,,session,2471.718801400042,144.0,2.0,72.0,0.02577899520000001,4,2.2201193999499083,2.3383119999198243,0,1.6711389999836683,1.9389043999835849,0,1.5997511999448761,1.9310222000349313,,,57.0,48.0,58474,60.0,
77,-77,0,9,10,154,9,,,,,,,,,,,session,2484.2765442000236,132.0,2.0,72.0,0.02577899520000001,4,0.5965777999954298,0.6966739000054076,0,1.523711399990134,1.6893623999785632,7,0.4158265999285504,0.5995916000101715,,,63.0,51.0,58474,60.0,
-77,-77,45,9,11,155,14,,,,,,,,,,,session,2492.818976700073,180.0,2.0,72.0,0.02577899520000001,3,0.9324437000323087,1.082219299976714,7,0.98754760005977,1.1544745001010597,7,0.6056001000106335,0.7727368000196293,,,66.0,48.0,58474,60.0,
77,-77,45,9,12,156,10,,,,,,,,,,,session,2502.7807624000125,174.0,2.0,72.0,0.02577899520000001,4,1.6678488999605179,1.834704399923794,1,0.9050144000211731,1.0896834000013769,0,0.21698349993675947,0.41707069997210056,,,69.0,66.0,58474,60.0,
77,77,-45,9,13,157,0,,,,,,,,,,,session,2512.7333326999797,144.0,2.0,72.0,0.02577899520000001,5,0.7364035999635234,0.8542534000007436,1,4.317243900033645,4.385986700071953,6,3.513093200046569,3.745034600025974,,,66.0,72.0,58474,60.0,
-77,77,-45,9,14,158,4,,,,,,,,,,,session,2527.8780041000573,132.0,2.0,72.0,0.02577899520000001,2,0.9280649999855086,1.1104790000244975,1,0.765664599952288,0.8831062999088317,6,2.0220843999413773,2.220077299978584,,,54.0,54.0,58474,60.0,
77,-77,90,9,15,159,11,,,,,,,,,,,session,2537.5510743000777,132.0,2.0,72.0,0.02577899520000001,4,0.47385030006989837,0.5781693001044914,6,1.1022770000854507,1.302015700028278,1,0.9045872000278905,1.1246157999848947,,,69.0,66.0,58474,60.0,
77,-77,90,9,15,159,11,,,materials/instructions\12_break.png,2546.919220700045,2573.826816100045,4,26.705096499994397,26.905493500060402,0.023862000089138746,26.913265200098976,,,,,,,,,,,,,,,,,,,,58474,60.0,
77,-77,0,10,0,160,9,,,,,,,,,,,session,2573.842480099993,168.0,2.0,72.0,0.02577899520000001,4,1.260746999992989,1.39347009989433,0,1.0984650000464171,1.2997476999880746,6,1.8713172000134364,2.0045451999176294,,,51.0,72.0,58474,60.0,
77,-77,-45,10,1,161,8,,,,,,,,,,,session,2584.858095100033,126.0,2.0,72.0,0.02577899520000001,4,1.3959450999973342,1.5458830998977646,1,1.48220810003113,1.6322941000107676,6,0.5639122000429779,0.7150312999729067,,,57.0,54.0,58474,60.0,
-77,-77,-45,10,2,162,12,,,,,,,,,,,session,2594.5298421999905,168.0,2.0,72.0,0.02577899520000001,3,0.35117979999631643,0.5014551000203937,1,0.9519434999674559,1.0854282999644056,6,0.4165778999449685,0.600100600044243,,,60.0,60.0,58474,60.0,
77,-77,45,10,3,163,10,,,,,,,,,,,session,2602.967650800012,132.0,2.0,72.0,0.02577899520000001,4,1.2247378999600187,1.3458590999944136,7,1.1332199000753462,1.3344288000371307,1,3.318867899943143,3.418752699973993,,,48.0,66.0,58474,60.0,
-77,77,0,10,4,164,5,,,,,,,,,,,session,2614.8779874000465,156.0,2.0,72.0,0.02577899520000001,2,1.0931142999324948,1.2262385999783874,0,0.774545400054194,0.9238259000703692,1,1.232734699966386,1.349431399954483,,,69.0,63.0,58474,60.0,
-77,-77,90,10,5,165,15,,,,,,,,,,,session,2624.6333469999954,126.0,2.0,72.0,0.02577899520000001,3,0.8626979999244213,0.9771626000292599,6,0.782631199923344,0.9826604999834672,1,0.382995399995707,0.4974078999366611,,,72.0,66.0,58474,60.0,
77,77,90,10,6,166,3,,,,,,,,,,,session,2632.9767717000796,144.0,2.0,72.0,0.02577899520000001,5,1.0567091000266373,1.2059476000722498,0,1.1715276000322774,1.3224838000023738,0,0.9035990999545902,1.1042510999832302,,,72.0,57.0,58474,60.0,
77,77,-45,10,7,167,0,,,,,,,,,,,session,2642.5977596000303,168.0,2.0,72.0,0.02577899520000001,5,0.7735399999655783,0.940368999959901,1,2.5157579000806436,2.6495766000589356,1,0.7709599999943748,0.8841132000088692,,,51.0,63.0,58474,60.0,
-77,-77,45,10,8,168,14,,,,,,,,,,,session,2653.2770773000084,162.0,2.0,72.0,0.02577899520000001,3,2.0868798999581486,2.2348730999510735,0,0.9872592000756413,1.155840800027363,0,0.7672655000351369,0.8856937000527978,,,51.0,69.0,58474,60.0,
-77,77,-45,10,9,169,4,,,,,,,,,,,session,2663.7140882000094,132.0,2.0,72.0,0.02577899520000001,2,2.800893299980089,2.9012715000426397,1,1.5416832999326289,1.7305550000164658,1,1.33672900008969,1.5178351000649855,,,69.0,54.0,58474,60.0,
77,77,0,10,10,170,1,,,,,,,,,,,session,2675.576251300052,150.0,2.0,72.0,0.02577899520000001,5,0.33402490010485053,0.5016369000077248,0,0.7545445000287145,0.8877814000006765,1,0.26390799996443093,0.46519090002402663,,,51.0,51.0,58474,60.0,
77,77,45,10,11,171,2,,,,,,,,,,,session,2683.080229000072,156.0,2.0,72.0,0.02577899520000001,5,1.3324768000748008,1.4830784000223503,7,0.7412519999779761,1.171911699930206,1,0.7042438000207767,0.9209572999970987,,,63.0,63.0,58474,60.0,
-77,-77,0,10,12,172,13,,,,,,,,,,,session,2692.8026824999833,168.0,2.0,72.0,0.02577899520000001,3,0.5759507999755442,0.7283925999654457,0,1.2199435000075027,1.3699131000321358,7,1.0647647000150755,1.1981120000127703,,,66.0,48.0,58474,60.0,
-77,77,90,10,13,173,7,,,,,,,,,,,session,2702.9445691000437,138.0,2.0,72.0,0.02577899520000001,2,0.5364999000448734,0.702385799959302,6,2.1224341999040917,2.2558156999293715,7,2.4542424000101164,2.6043063999386504,,,72.0,48.0,58474,60.0,
77,-77,90,10,14,174,11,,,,,,,,,,,session,2714.2529652999947,150.0,2.0,72.0,0.02577899520000001,4,0.42512529995292425,0.5594689999707043,6,3.185703899944201,3.3372843000106514,7,1.4340504999272525,1.5996911999536678,,,57.0,60.0,58474,60.0,
-77,77,45,10,15,175,6,,,,,,,,,,,session,2726.1453400000464,156.0,2.0,72.0,0.02577899520000001,3,1.651188199990429,1.7689335000468418,0,2.019954100018367,2.2204848000546917,0,0.3522999999113381,0.5200514999451116,,,57.0,63.0,58474,60.0,
-77,77,0,11,0,176,5,,,,,,,,,,,session,2736.7033633000683,138.0,2.0,72.0,0.02577899520000001,2,0.4916773000732064,0.5955110000213608,0,2.156551899970509,2.322309699957259,6,0.3834487000713125,0.5343664999818429,,,69.0,51.0,58474,60.0,
-77,77,90,11,1,177,7,,,,,,,,,,,session,2746.4158179999795,138.0,2.0,72.0,0.02577899520000001,2,0.18181710003409535,0.3317906999727711,6,1.4933883000630885,1.6093366000568494,6,0.0112379000056535,0.11631670000497252,,,54.0,57.0,58474,60.0,
77,-77,0,11,2,178,9,,,,,,,,,,,session,2754.082155900076,180.0,2.0,72.0,0.02577899520000001,4,1.055470300023444,1.2218557000160217,1,1.650821299990639,1.784209099947475,0,0.14663329999893904,0.29628909996245056,,,51.0,57.0,58474,60.0,
-77,-77,90,11,3,179,15,,,,,,,,,,,session,2763.6305487999925,168.0,2.0,72.0,0.02577899520000001,3,0.7469212000723928,0.8801735000452027,0,0.4238160999957472,0.6096465000882745,0,0.6278158000204712,0.8112656000303105,,,48.0,72.0,58474,60.0,
-77,-77,90,11,3,179,15,,,materials/instructions\12_break.png,2772.191575600067,2827.7721962999785,0,55.39959689998068,55.57854150002822,0.02249809994827956,55.59029439999722,,,,,,,,,,,,,,,,,,,,58474,60.0,
-77,-77,-45,11,4,180,12,,,,,,,,,,,session,2827.7926881000167,162.0,2.0,72.0,0.02577899520000001,3,1.043871800065972,1.1762958000181243,1,1.554647299926728,1.6712744999676943,6,0.3305998999858275,0.5140621999744326,,,72.0,69.0,58474,60.0,
77,77,-45,11,5,181,0,,,,,,,,,,,session,2838.0639797999756,150.0,2.0,72.0,0.02577899520000001,5,1.637326700030826,1.8041079000104219,1,0.8716081000166014,0.9715726000722498,1,1.0826887999428436,1.2002972000045702,,,51.0,66.0,58474,60.0,
-77,-77,45,11,6,182,14,,,,,,,,,,,session,2847.9380183999892,174.0,2.0,72.0,0.02577899520000001,3,1.0123223999980837,1.1623541999142617,7,0.9019415000220761,1.0689178000902757,1,0.643313099979423,0.7569825999671593,,,51.0,60.0,58474,60.0,
77,77,90,11,7,183,3,,,,,,,,,,,session,2857.8113213999895,138.0,2.0,72.0,0.02577899520000001,5,0.6814489000244066,0.8816507000010461,6,0.45511900004930794,0.6220975000178441,1,0.7123310000170022,0.8289943999843672,,,54.0,48.0,58474,60.0,
-77,77,45,11,8,184,6,,,,,,,,,,,session,2865.5836802000413,138.0,2.0,72.0,0.02577899520000001,5,0.8662391999969259,1.0664627999067307,1,0.8332686999347061,0.9164856999414042,0,0.6531668999232352,0.7660891999257728,,,66.0,57.0,58474,60.0,
77,-77,45,11,9,185,10,,,,,,,,,,,session,2874.14496960002,132.0,2.0,72.0,0.02577899520000001,2,1.523797900066711,1.621218900079839,0,2.1112108000088483,2.226863499963656,0,0.5350343999452889,0.6388483999762684,,,66.0,66.0,58474,60.0,
-77,-77,0,11,10,186,13,,,,,,,,,,,session,2884.4848974000197,132.0,2.0,72.0,0.02577899520000001,3,0.23823819996323436,0.37018249998800457,0,0.6874464000575244,0.7876083999872208,1,0.9803916999371722,1.0477006000000983,,,63.0,63.0,58474,60.0,
77,77,45,11,11,187,2,,,,,,,,,,,session,2892.4384949000087,144.0,2.0,72.0,0.02577899520000001,5,0.7418620000826195,0.8775280000409111,7,1.0104094999842346,1.1616321000037715,1,1.6485734999878332,1.7983128998894244,,,72.0,72.0,58474,60.0,
77,-77,-45,11,12,188,8,,,,,,,,,,,session,2903.146973100025,126.0,2.0,72.0,0.02577899520000001,4,0.5181404000613838,0.6682956999866292,1,1.7911218999652192,1.8891903000185266,1,0.43296320002991706,0.5508817000081763,,,51.0,54.0,58474,60.0,
77,77,0,11,13,189,1,,,,,,,,,,,session,2911.5531288000057,162.0,2.0,72.0,0.02577899520000001,5,0.6786970000248402,0.812182700028643,0,0.8937252999749035,1.1575164999812841,0,0.649912599939853,0.7853487000102177,,,60.0,54.0,58474,60.0,
-77,77,-45,11,14,190,4,,,,,,,,,,,session,2920.448412299971,180.0,2.0,72.0,0.02577899520000001,5,2.7178872999502346,2.917952699935995,0,0.772348599974066,0.9224179999437183,0,0.2586729000322521,0.42633839999325573,,,63.0,51.0,58474,60.0,
77,-77,90,11,15,191,11,,,,,,,,,,,session,2931.0701473000227,138.0,2.0,72.0,0.02577899520000001,4,0.9730606999946758,1.1065589000936598,6,1.212269700015895,1.4289343000855297,1,4.153130399994552,4.303737100097351,,,57.0,51.0,58474,60.0,
77,-77,45,12,0,192,10,,,,,,,,,,,session,2943.430090100039,168.0,2.0,72.0,0.02577899520000001,3,1.9093381999991834,2.0594701999798417,1,2.2903223000466824,2.507144100032747,0,1.9400658999802545,2.173645899980329,,,54.0,48.0,58474,60.0,
-77,77,0,12,1,193,5,,,,,,,,,,,session,2956.1203576000407,132.0,2.0,72.0,0.02577899520000001,2,0.35524980002082884,0.4886994999833405,0,1.1534091999055818,1.3739235999528319,7,0.9656735999742523,1.1323466000612825,,,57.0,72.0,58474,60.0,
77,77,0,12,2,194,1,,,,,,,,,,,session,2964.9128458000487,156.0,2.0,72.0,0.02577899520000001,5,0.259259199956432,0.4593301999848336,0,1.5852344000013545,1.8187252000207081,7,3.270799799938686,3.4205299000022933,,,57.0,66.0,58474,60.0,
-77,77,90,12,3,195,7,,,,,,,,,,,session,2976.7191667000297,144.0,2.0,72.0,0.02577899520000001,2,0.39689470001030713,0.5470832999562845,6,1.0728269000537694,1.2141550000524148,6,2.685170399956405,2.817726799985394,,,51.0,60.0,58474,60.0,
77,77,45,12,4,196,2,,,,,,,,,,,session,2986.9810231999727,162.0,2.0,72.0,0.02577899520000001,5,0.505501399980858,0.670015599927865,7,0.9545921999961138,1.1043045999249443,6,1.6391643000533804,1.84044299996458,,,60.0,48.0,58474,60.0,
77,77,-45,12,5,197,0,,,,,,,,,,,session,2996.550923599978,156.0,2.0,72.0,0.02577899520000001,5,0.8435100000351667,0.9778312999987975,1,1.2799674000125378,1.385632700053975,7,3.37675609998405,3.5128205999499187,,,63.0,48.0,58474,60.0,
-77,77,-45,12,6,198,4,,,,,,,,,,,session,3008.3321205000393,162.0,2.0,72.0,0.02577899520000001,2,4.5044859000481665,4.672076000017114,1,0.9556144999805838,1.0889869999373332,1,0.9490029999287799,1.0991891999728978,,,63.0,60.0,58474,60.0,
77,-77,-45,12,7,199,8,,,,,,,,,,,session,3021.404196400079,180.0,2.0,72.0,0.02577899520000001,4,0.28832350007724017,0.41717350005637854,1,1.043981199967675,1.1332723000086844,1,0.19798249995801598,0.3482035999186337,,,51.0,72.0,58474,60.0,
77,-77,-45,12,7,199,8,,,materials/instructions\12_break.png,3029.901219399995,3056.694270799984,0,26.707580199930817,26.791076899971813,0.02602130000013858,26.799139600014314,,,,,,,,,,,,,,,,,,,,58474,60.0,
77,-77,0,12,8,200,9,,,,,,,,,,,session,3056.7105337000685,150.0,2.0,72.0,0.02577899520000001,4,2.544193100067787,2.6429334999993443,0,0.25440490001346916,0.42126159998588264,0,0.011202499968931079,0.09505140001419932,,,60.0,72.0,58474,60.0,
-77,77,45,12,9,201,6,,,,,,,,,,,session,3066.0193797000684,132.0,2.0,72.0,0.02577899520000001,2,0.7391795000294223,0.9116104999557137,7,0.9814457999309525,1.1147525999695063,1,2.3667730999877676,0.010956699959933758,,,66.0,66.0,58474,60.0,
77,77,90,12,10,202,3,,,,,,,,,,,session,3076.281381000066,150.0,2.0,72.0,0.02577899520000001,5,0.583377999952063,0.7335021999897435,6,0.5410555000416934,0.7404036000370979,1,0.5004368999507278,0.6837943999562413,,,57.0,63.0,58474,60.0,
-77,-77,45,12,11,203,14,,,,,,,,,,,session,3084.3828670000657,144.0,2.0,72.0,0.02577899520000001,2,1.568682900047861,1.7196630999678746,0,1.233029600000009,1.3828001000219956,1,1.7179182000691071,1.8716427000472322,,,72.0,66.0,58474,60.0,
-77,-77,90,12,12,204,15,,,,,,,,,,,session,3095.5007272000657,138.0,2.0,72.0,0.02577899520000001,3,1.212947400053963,1.3461712000425905,6,1.270397299900651,1.3871444999240339,1,9.510219499934465,9.61108519998379,,,54.0,72.0,58474,60.0,
-77,-77,0,12,13,205,13,,,,,,,,,,,session,3113.7075370000675,150.0,2.0,72.0,0.02577899520000001,3,0.48083380004391074,0.6153995000058785,0,0.56894850009121,0.7698736999882385,1,5.336452599964105,5.436084499931894,,,72.0,54.0,58474,60.0,
77,-77,90,12,14,206,11,,,,,,,,,,,session,3127.267910500057,168.0,2.0,72.0,0.02577899520000001,5,0.8660352999577299,1.0497414999408647,0,0.1370500000193715,0.3550081999273971,0,0.7371976000722498,0.9194330000318587,,,63.0,48.0,58474,60.0,
-77,-77,-45,12,15,207,12,,,,,,,,,,,session,3135.672389100073,180.0,2.0,72.0,0.02577899520000001,3,0.49770669999998063,0.5968860000139102,1,1.9409971999702975,2.074589699972421,1,0.9869433001149446,1.1213411000790074,,,51.0,57.0,58474,60.0,
77,77,-45,13,0,208,0,,,,,,,,,,,session,3146.2495178000536,144.0,2.0,72.0,0.02577899520000001,5,0.8767044999403879,1.0079279999481514,1,1.9037288000108674,2.0701143000042066,1,1.4964518999913707,1.713176399935037,,,51.0,63.0,58474,60.0,
-77,-77,90,13,1,209,15,,,,,,,,,,,session,3156.8051076000556,132.0,2.0,72.0,0.02577899520000001,3,0.4947610000381246,0.5983238000189885,6,0.38501309999264777,0.5695345000131056,1,0.4819126999936998,0.6994523999746889,,,51.0,51.0,58474,60.0,
77,77,45,13,2,210,2,,,,,,,,,,,session,3164.6494549000636,156.0,2.0,72.0,0.02577899520000001,5,0.7804406000068411,0.9472609999356791,7,1.021593900048174,1.2216931000584736,7,0.6537260999903083,0.8037170000607148,,,57.0,69.0,58474,60.0,
-77,77,90,13,3,211,7,,,,,,,,,,,session,3173.785886000027,138.0,2.0,72.0,0.02577899520000001,2,0.735738700022921,0.9352599999401718,6,0.039241399965249,0.306563499965705,6,0.22554330003913492,0.44235639995895326,,,63.0,57.0,58474,60.0,
-77,77,0,13,4,212,5,,,,,,,,,,,session,3181.211220200057,132.0,2.0,72.0,0.02577899520000001,2,0.48697809991426766,0.6866844999603927,0,0.31930229999125004,0.4514010000275448,7,0.31738220003899187,0.4652324999915436,,,66.0,48.0,58474,60.0,
77,-77,0,13,5,213,9,,,,,,,,,,,session,3188.7660327000776,174.0,2.0,72.0,0.02577899520000001,4,1.1266962999943644,1.3110248999437317,1,0.7863571000052616,0.9195964999962598,1,1.0321272999281064,1.2169852999504656,,,63.0,69.0,58474,60.0,
77,-77,45,13,6,214,10,,,,,,,,,,,session,3198.7550081000663,156.0,2.0,72.0,0.02577899520000001,4,0.6691296000499278,0.7526415000902489,7,2.6857835999689996,2.8522912999615073,1,1.0547324999934062,1.1882122000679374,,,48.0,66.0,58474,60.0,
77,77,0,13,7,215,1,,,,,,,,,,,session,3209.597101500025,144.0,2.0,72.0,0.02577899520000001,5,1.0543648999882862,1.22188530000858,0,2.3603723000269383,2.6104037000332028,1,1.1724491000641137,1.3543860000791028,,,54.0,63.0,58474,60.0,
-77,-77,45,13,8,216,14,,,,,,,,,,,session,3220.5721897999756,132.0,2.0,72.0,0.02577899520000001,2,2.2957790000364184,2.429260200005956,1,1.5507112999912351,1.7186812000581995,0,0.49836020008660853,0.665836300002411,,,54.0,60.0,58474,60.0,
77,77,90,13,9,217,3,,,,,,,,,,,session,3230.9471940000076,144.0,2.0,72.0,0.02577899520000001,5,0.2955668999347836,0.4457609999226406,6,0.5206830000970513,0.7197638000361621,0,0.5708153999876231,0.6723235000390559,,,57.0,60.0,58474,60.0,
-77,77,45,13,10,218,6,,,,,,,,,,,session,3238.5853233999806,168.0,2.0,72.0,0.02577899520000001,2,1.2045375999296084,1.3207160999299958,7,1.1576967000728473,1.293319100048393,1,0.09312469989527017,0.2458858999889344,,,69.0,57.0,58474,60.0,
-77,-77,0,13,11,219,13,,,,,,,,,,,session,3247.817299199989,132.0,2.0,72.0,0.02577899520000001,3,0.9804922000039369,1.132256899960339,0,2.034810999990441,2.1664202999090776,1,9.623477599932812,9.740055999951437,,,57.0,54.0,58474,60.0,
-77,-77,0,13,11,219,13,,,materials/instructions\12_break.png,3266.7218609000556,3337.7124611000763,0,70.73453020001762,70.98881200002506,0.018517899909056723,70.99678249994759,,,,,,,,,,,,,,,,,,,,58474,60.0,
-77,77,-45,13,12,220,4,,,,,,,,,,,session,3337.729134400026,174.0,2.0,72.0,0.02577899520000001,2,1.4072115999879315,1.5717868000501767,1,1.825492599979043,1.9752913999836892,1,0.9557768000522628,1.10688990005292,,,63.0,66.0,58474,60.0,
77,-77,90,13,13,221,11,,,,,,,,,,,session,3348.8689948000247,168.0,2.0,72.0,0.02577899520000001,4,1.0186683000065386,1.1520401000743732,7,1.1227941999677569,1.3381299000466242,1,1.3463692999212071,1.5278353999601677,,,69.0,54.0,58474,60.0,
77,-77,-45,13,14,222,8,,,,,,,,,,,session,3359.1983098000055,138.0,2.0,72.0,0.02577899520000001,4,0.3165834998944774,0.46898509992752224,1,1.035679699969478,1.2689647999359295,1,0.298925600014627,0.4974563999567181,,,54.0,63.0,58474,60.0,
-77,-77,-45,13,15,223,12,,,,,,,,,,,session,3367.216025199974,138.0,2.0,72.0,0.02577899520000001,3,2.0999377999687567,2.2337076999247074,0,1.2216902000363916,1.4063202999532223,0,0.1398889000993222,0.34240600001066923,,,60.0,66.0,58474,60.0,
77,-77,-45,14,0,224,8,,,,,,,,,,,session,3377.0427004999947,138.0,2.0,72.0,0.02577899520000001,4,1.028769199969247,1.1621550000272691,1,1.588318399968557,1.8021700999233872,0,0.1481902999803424,0.33191639999859035,,,66.0,54.0,58474,60.0,
-77,77,90,14,1,225,7,,,,,,,,,,,session,3386.5149554000236,174.0,2.0,72.0,0.02577899520000001,2,1.190832699998282,1.3910549000138417,6,0.6343460000352934,0.801626899978146,6,0.28848389990162104,0.48820479994174093,,,66.0,57.0,58474,60.0,
-77,-77,90,14,2,226,15,,,,,,,,,,,session,3395.588281100034,138.0,2.0,72.0,0.02577899520000001,2,2.3964371000183746,2.5631368999602273,6,1.271415299968794,1.4672231998993084,1,0.5034224000992253,0.6530410000123084,,,72.0,48.0,58474,60.0,
-77,77,45,14,3,227,6,,,,,,,,,,,session,3406.015521400026,144.0,2.0,72.0,0.02577899520000001,2,0.9179386999458075,1.1345919999293983,7,0.9258635999867693,1.2069652000209317,6,0.203520999988541,0.4203350000316277,,,51.0,72.0,58474,60.0,
77,77,45,14,4,228,2,,,,,,,,,,,session,3414.667972000083,144.0,2.0,72.0,0.02577899520000001,5,1.0385649000527337,1.256417699973099,7,0.5218106999527663,0.7052090000361204,1,0.19905659998767078,0.3505874000256881,,,54.0,48.0,58474,60.0,
-77,77,0,14,5,229,5,,,,,,,,,,,session,3422.5249133000616,126.0,2.0,72.0,0.02577899520000001,2,0.5752397000323981,0.7289746999740601,0,0.9044888000935316,1.0702100000344217,7,0.1727128999773413,0.40610450005624443,,,51.0,63.0,58474,60.0,
77,-77,45,14,6,230,10,,,,,,,,,,,session,3430.6837912000483,138.0,2.0,72.0,0.02577899520000001,2,1.5153825000161305,1.6655681000556797,1,0.05455290002282709,0.18929300003219396,0,0.01107779995072633,0.07324940001126379,,,48.0,66.0,58474,60.0,
77,-77,0,14,7,231,9,,,,,,,,,,,session,3438.2525533000007,156.0,2.0,72.0,0.02577899520000001,4,0.8357369999866933,0.9858846999704838,1,0.8141753999516368,0.9648937999736518,0,0.07225019996985793,0.22407820005901158,,,69.0,57.0,58474,60.0,
-77,-77,0,14,8,232,13,,,,,,,,,,,session,3446.568635500036,126.0,2.0,72.0,0.02577899520000001,3,1.1030423999764025,1.2329176999628544,0,0.6201777999522164,0.7879084999440238,7,0.2006090999348089,0.3806988999713212,,,63.0,54.0,58474,60.0,
-77,-77,-45,14,9,233,12,,,,,,,,,,,session,3454.7800337000517,180.0,2.0,72.0,0.02577899520000001,3,2.0179388999240473,2.151429299963638,1,0.9202191999647766,1.0697712999535725,7,0.08426899998448789,0.3192021999275312,,,51.0,54.0,58474,60.0,
77,77,90,14,10,234,3,,,,,,,,,,,session,3464.5232532999944,126.0,2.0,72.0,0.02577899520000001,5,1.04999750002753,1.249805000028573,1,0.8389235000358894,1.0394567999755964,0,0.24860459996853024,0.39813139999751,,,66.0,51.0,58474,60.0,
77,77,0,14,11,235,1,,,,,,,,,,,session,3472.8140475000255,144.0,2.0,72.0,0.02577899520000001,5,0.7364545000018552,0.8865750000113621,0,1.0066317000892013,1.1900801000883803,1,2.32236470002681,2.4556247000582516,,,63.0,57.0,58474,60.0,
77,77,-45,14,12,236,0,,,,,,,,,,,session,3483.1864776000148,126.0,2.0,72.0,0.02577899520000001,5,1.249472700059414,1.4154521999880672,1,1.6334398000035435,1.7837515999563038,1,0.8515182000119239,1.0041309000225738,,,48.0,57.0,58474,60.0,
77,-77,90,14,13,237,11,,,,,,,,,,,session,3492.685987500008,162.0,2.0,72.0,0.02577899520000001,4,0.9576458999654278,1.123126499936916,6,2.0422153000254184,2.1923964000307024,0,1.7368342000991106,1.9035110000986606,,,72.0,69.0,58474,60.0,
-77,-77,45,14,14,238,14,,,,,,,,,,,session,3504.402797000017,132.0,2.0,72.0,0.02577899520000001,3,0.9856570999836549,1.1180418999865651,7,1.520740000065416,1.905935800052248,7,0.8674360000295565,1.1650898000225425,,,48.0,48.0,58474,60.0,
-77,77,-45,14,15,239,4,,,,,,,,,,,session,3513.836027499987,168.0,2.0,72.0,0.02577899520000001,2,1.0557990999659523,1.1724212999688461,1,1.5877906000241637,1.7220132999354973,7,1.0697270999662578,1.253096399945207,,,51.0,66.0,58474,60.0,
-77,77,-45,14,15,239,4,,,materials/instructions\12_break.png,3524.243616700056,3532.105083900038,4,7.741945600020699,7.859349700040184,0.02529999997932464,7.866850599995814,,,,,,,,,,,,,,,,,,,,58474,60.0,
77,-77,90,15,0,240,11,,,,,,,,,,,session,3532.1203199999873,150.0,2.0,72.0,0.02577899520000001,4,0.37437790003605187,0.5077804999891669,6,1.335540400003083,1.5343144000507891,7,2.132880099932663,2.350086299935356,,,69.0,57.0,58474,60.0,
77,77,45,15,1,241,2,,,,,,,,,,,session,3543.1864871999715,174.0,2.0,72.0,0.02577899520000001,5,1.383569800062105,1.5003151000710204,1,1.6946079999906942,2.0113825999433175,0,0.8010190000059083,0.9833964999997988,,,54.0,72.0,58474,60.0,
77,77,90,15,2,242,3,,,,,,,,,,,session,3554.1401428000536,168.0,2.0,72.0,0.02577899520000001,5,0.19202869990840554,0.34224529995117337,6,2.4714403999969363,2.588365299976431,7,3.309550300007686,3.542534100008197,,,60.0,72.0,58474,60.0,
-77,77,90,15,3,243,7,,,,,,,,,,,session,3567.6185543000465,138.0,2.0,72.0,0.02577899520000001,2,1.0718921000370756,1.1550701999804005,6,1.006644899956882,1.1232509999535978,1,0.9171477000927553,1.0345294000580907,,,51.0,54.0,58474,60.0,
77,-77,0,15,4,244,9,,,,,,,,,,,session,3576.424921900034,150.0,2.0,72.0,0.02577899520000001,4,0.579818999976851,0.6927581999916583,0,0.6692529000574723,0.8551657000789419,1,0.44919479999225587,0.547133699990809,,,72.0,57.0,58474,60.0,
77,77,-45,15,5,245,0,,,,,,,,,,,session,3585.266891699983,126.0,2.0,72.0,0.02577899520000001,5,0.9364579999819398,1.053060100064613,7,1.558149200049229,1.7750762000214309,0,0.40609330008737743,0.5875623000320047,,,72.0,54.0,58474,60.0,
-77,77,-45,15,6,246,4,,,,,,,,,,,session,3594.320924600004,138.0,2.0,72.0,0.02577899520000001,2,1.120598099892959,1.271340599982068,1,2.695682800025679,2.866221599979326,6,12.872822700068355,12.988465100061148,,,72.0,54.0,58474,60.0,
-77,77,0,15,7,247,5,,,,,,,,,,,session,3617.3384227000643,126.0,2.0,72.0,0.02577899520000001,2,0.8902610999066383,1.0418583999853581,0,1.1531411999603733,1.2815352999605238,7,8.016066200099885,8.216130600078031,,,51.0,66.0,58474,60.0,
-77,-77,90,15,8,248,15,,,,,,,,,,,session,3633.3856490000617,156.0,2.0,72.0,0.02577899520000001,2,4.313064399990253,4.465099000022747,0,0.2975673000328243,0.41433780000079423,0,0.8809357000282034,1.031075599952601,,,51.0,60.0,58474,60.0,
-77,-77,0,15,9,249,13,,,,,,,,,,,session,3645.202220099978,180.0,2.0,72.0,0.02577899520000001,3,0.6365493000485003,0.7864964000182226,0,1.0398458000272512,1.1728009999496862,7,0.30401620001066476,0.48755760001949966,,,51.0,54.0,58474,60.0,
-77,-77,-45,15,10,250,12,,,,,,,,,,,session,3654.2690389000345,174.0,2.0,72.0,0.02577899520000001,3,1.8823383999988437,2.0158650000812486,1,1.2265543999383226,1.3766477999743074,1,1.6172930999891832,1.801517599960789,,,66.0,66.0,58474,60.0,
-77,77,45,15,11,251,6,,,,,,,,,,,session,3666.0263317000354,180.0,2.0,72.0,0.02577899520000001,2,0.9122299000155181,1.0298293000087142,7,0.791523199994117,1.0072240999434143,1,0.3018265999853611,0.4366919999010861,,,48.0,54.0,58474,60.0,
77,77,0,15,12,252,1,,,,,,,,,,,session,3675.251119600027,168.0,2.0,72.0,0.02577899520000001,5,1.0694534999784082,1.2364200999727473,0,0.8533467999659479,1.001503000035882,1,1.5514524999307469,1.7182543999515474,,,48.0,51.0,58474,60.0,
77,-77,45,15,13,253,10,,,,,,,,,,,session,3685.107838200056,132.0,2.0,72.0,0.02577899520000001,2,1.9840561000164598,2.1335844000568613,0,1.253824200015515,1.4204952999716625,0,0.6285023000091314,0.7608475999440998,,,57.0,48.0,58474,60.0,
-77,-77,45,15,14,254,14,,,,,,,,,,,session,3694.9005149999866,162.0,2.0,72.0,0.02577899520000001,4,0.9499368999386206,1.1341146000195295,1,1.9762227999744937,2.074168600025587,0,0.29180800006724894,0.442401000065729,,,57.0,66.0,58474,60.0,
77,-77,-45,15,15,255,8,,,,,,,,,,,session,3704.7376995000523,126.0,2.0,72.0,0.02577899520000001,4,0.4718727999133989,0.6220254999352619,1,1.9980279000010341,2.148372199968435,1,0.24574619997292757,0.4459418000187725,,,57.0,66.0,58474,60.0,
77,77,-45,16,0,256,0,,,,,,,,,,,session,3713.5496946000494,126.0,2.0,72.0,0.02577899520000001,5,0.8065050999866799,0.9567033000057563,1,0.6031828999985009,0.7699419999262318,7,1.7142511999700218,1.93104629998561,,,72.0,54.0,58474,60.0,
77,77,45,16,1,257,2,,,,,,,,,,,session,3722.8852665000595,138.0,2.0,72.0,0.02577899520000001,3,1.9446526999818161,2.1446800000267103,0,1.5421267000492662,1.7920834000688046,0,1.2937648999504745,1.4270461000269279,,,66.0,60.0,58474,60.0,
77,-77,45,16,2,258,10,,,,,,,,,,,session,3734.0984215000644,150.0,2.0,72.0,0.02577899520000001,4,1.0051338999764994,1.1217718999832869,7,1.6357462999876589,1.8547675999579951,6,2.921800300013274,3.0217968000797555,,,51.0,51.0,58474,60.0,
-77,-77,45,16,3,259,14,,,,,,,,,,,session,3746.0394753,138.0,2.0,72.0,0.02577899520000001,3,0.9682906999951228,1.0861410000361502,7,1.7830706000095233,1.9668463999405503,1,1.8133634000550956,1.9633797000860795,,,66.0,57.0,58474,60.0,
-77,-77,45,16,3,259,14,,,materials/instructions\12_break.png,3756.8859723000787,3789.802261200035,0,32.7976045999676,32.91384339996148,0.01607529993634671,32.919898799969815,,,,,,,,,,,,,,,,,,,,58474,60.0,
-77,77,0,16,4,260,5,,,,,,,,,,,session,3789.8155745000113,168.0,2.0,72.0,0.02577899520000001,4,1.360473099979572,1.474370799958706,0,0.8065224000019953,0.9565620999783278,0,0.14477889996487647,0.3542433000402525,,,72.0,66.0,58474,60.0,
-77,77,-45,16,5,261,4,,,,,,,,,,,session,3799.1779434999917,156.0,2.0,72.0,0.02577899520000001,2,1.427378399996087,1.594297399977222,1,0.921884199953638,1.0718108000000939,6,1.366647999966517,1.482645699987188,,,72.0,72.0,58474,60.0,
77,77,90,16,6,262,3,,,,,,,,,,,session,3810.353140900028,150.0,2.0,72.0,0.02577899520000001,5,0.9879084000131115,1.1704921999480575,6,1.0589733999222517,1.1584995999000967,6,5.692242500022985,5.825657100067474,,,54.0,69.0,58474,60.0,
-77,-77,-45,16,7,263,12,,,,,,,,,,,session,3824.5005768000847,150.0,2.0,72.0,0.02577899520000001,3,1.235926799941808,1.333513299934566,0,1.0532107999315485,1.3033520999597386,1,10.136267599998973,10.236322300042957,,,57.0,54.0,58474,60.0,
-77,77,90,16,8,264,7,,,,,,,,,,,session,3843.1859204000793,180.0,2.0,72.0,0.02577899520000001,2,0.7905137999914587,0.9588599000126123,6,0.8696257000556216,1.0197735000401735,6,1.0313190000597388,1.213688199990429,,,54.0,72.0,58474,60.0,
-77,-77,0,16,9,265,13,,,,,,,,,,,session,3853.552396700019,150.0,2.0,72.0,0.02577899520000001,3,1.2205822999821976,1.3377579000080004,1,0.23967060004360974,0.4553659000666812,0,0.19915790006052703,0.4327278999844566,,,60.0,69.0,58474,60.0,
77,-77,0,16,10,266,9,,,,,,,,,,,session,3861.8737762999954,126.0,2.0,72.0,0.02577899520000001,4,1.4588963000569493,1.541942400042899,1,0.9385836999863386,1.1851131999865174,0,0.3033675999613479,0.9867304000072181,,,48.0,60.0,58474,60.0,
-77,-77,90,16,11,267,15,,,,,,,,,,,session,3870.9836131000193,174.0,2.0,72.0,0.02577899520000001,4,2.520926999975927,2.6378152000252157,6,0.6363365999422967,0.8532051999354735,0,1.2562566000269726,1.423460999969393,,,63.0,60.0,58474,60.0,
77,-77,-45,16,12,268,8,,,,,,,,,,,session,3882.2911144000245,168.0,2.0,72.0,0.02577899520000001,4,0.8400560000445694,0.9243120000464842,1,1.1020833000075072,1.2354899999918416,6,1.6350544000742957,1.7872211000649258,,,48.0,51.0,58474,60.0,
77,-77,90,16,13,269,11,,,,,,,,,,,session,3892.1408322000643,132.0,2.0,72.0,0.02577899520000001,3,2.1208367999643087,2.270741599961184,0,1.1086550999898463,1.2917274000355974,0,0.7872040000511333,0.9551799000473693,,,72.0,57.0,58474,60.0,
-77,77,45,16,14,270,6,,,,,,,,,,,session,3902.4566387999803,174.0,2.0,72.0,0.02577899520000001,2,1.1767126000486314,1.2763594000134617,7,1.129246500087902,1.3460114999907091,1,1.169021699926816,1.3484820999437943,,,66.0,60.0,58474,60.0,
77,77,0,16,15,271,1,,,,,,,,,,,session,3912.8675288000377,126.0,2.0,72.0,0.02577899520000001,5,0.732787000015378,0.8338960000546649,0,1.0754876000573859,1.191507300012745,1,0.9480829000240192,1.131592100020498,,,54.0,69.0,58474,60.0,
-77,-77,0,17,0,272,13,,,,,,,,,,,session,3921.6197435000213,168.0,2.0,72.0,0.02577899520000001,2,0.9049558999249712,1.0383608000120148,1,1.423850900027901,1.6748308000387624,0,1.1066253000171855,1.3586169000482187,,,60.0,63.0,58474,60.0,
77,-77,90,17,1,273,11,,,,,,,,,,,session,3931.980685500079,168.0,2.0,72.0,0.02577899520000001,4,0.3307655999669805,0.4468032999429852,6,1.0691154999658465,1.2380973000545055,6,5.321522400015965,5.4708116999827325,,,57.0,54.0,58474,60.0,
-77,77,90,17,2,274,7,,,,,,,,,,,session,3945.7390489000827,144.0,2.0,72.0,0.02577899520000001,2,0.5240458999760449,0.6240804999833927,6,0.33951610000804067,0.5062490999698639,1,1.740691600018181,1.8960734999272972,,,54.0,63.0,58474,60.0,
77,-77,-45,17,3,275,8,,,,,,,,,,,session,3954.5547610999784,144.0,2.0,72.0,0.02577899520000001,4,0.8317123000742868,0.9499185000313446,1,1.1984640000155196,1.3795186000643298,1,0.7892861999571323,1.0051676000002772,,,63.0,57.0,58474,60.0,
77,-77,0,17,4,276,9,,,,,,,,,,,session,3964.204613900045,156.0,2.0,72.0,0.02577899520000001,5,2.8576236000517383,3.023860299959779,0,1.2876058000838384,1.5211095000850037,0,1.49594019993674,1.647939599934034,,,72.0,54.0,58474,60.0,
-77,77,45,17,5,277,6,,,,,,,,,,,session,3976.5403969000326,174.0,2.0,72.0,0.02577899520000001,2,0.8517706000711769,1.0012151000555605,7,1.1920409000013024,1.3917460999218747,7,0.3160767999943346,0.5160512001020834,,,63.0,48.0,58474,60.0,
77,77,-45,17,6,278,0,,,,,,,,,,,session,3986.0721753999824,156.0,2.0,72.0,0.02577899520000001,5,0.8743588998913765,1.0577822999330238,1,0.9587222000118345,1.058685899944976,7,1.555554199963808,1.738410499994643,,,72.0,54.0,58474,60.0,
-77,-77,45,17,7,279,14,,,,,,,,,,,session,3996.06007040001,156.0,2.0,72.0,0.02577899520000001,3,0.6286331999581307,0.7416517999954522,7,1.4875270000193268,1.7222524000098929,7,1.1404473999282345,1.3052146999398246,,,63.0,51.0,58474,60.0,
-77,-77,45,17,7,279,14,,,materials/instructions\12_break.png,4006.4786666000728,4066.883350500022,0,60.31547909998335,60.403109200065956,0.023994100047275424,60.410732300020754,,,,,,,,,,,,,,,,,,,,58474,60.0,
77,77,45,17,8,280,2,,,,,,,,,,,session,4066.8998883999884,138.0,2.0,72.0,0.02577899520000001,5,2.360628900001757,2.510432100039907,7,2.086371999932453,2.25384459993802,1,1.3513763999799266,1.5349987000226974,,,60.0,48.0,58474,60.0,
-77,77,0,17,9,281,5,,,,,,,,,,,session,4078.757134900079,132.0,2.0,72.0,0.02577899520000001,2,1.134484100039117,1.3178311999654397,0,1.1362424000399187,1.4227607999928296,6,1.8122488999506459,1.9623195000458509,,,48.0,63.0,58474,60.0,
-77,77,-45,17,10,282,4,,,,,,,,,,,session,4088.955213700072,132.0,2.0,72.0,0.02577899520000001,2,2.0978070000419393,2.2983332000439987,1,1.2085964999860153,1.3421594999963418,7,0.8539360999129713,1.0019549999851733,,,57.0,60.0,58474,60.0,
-77,-77,90,17,11,283,15,,,,,,,,,,,session,4099.204448600067,156.0,2.0,72.0,0.02577899520000001,3,0.9215026000747457,1.036354200099595,6,1.3795682000927627,1.6294806000078097,7,2.8265921000856906,2.9767616000026464,,,69.0,57.0,58474,60.0,
77,-77,45,17,12,284,10,,,,,,,,,,,session,4110.989858300076,126.0,2.0,72.0,0.02577899520000001,4,1.5365920000476763,1.6876702000154182,0,0.7843772999476641,0.9678921999875456,0,0.2779918999876827,0.39642739994451404,,,51.0,57.0,58474,60.0,
-77,-77,-45,17,13,285,12,,,,,,,,,,,session,4119.404426899971,150.0,2.0,72.0,0.02577899520000001,3,2.1223558000056073,2.221582500031218,1,0.47057859995402396,0.6198202000232413,0,0.012077399995177984,0.22110339999198914,,,69.0,69.0,58474,60.0,
77,77,90,17,14,286,3,,,,,,,,,,,session,4128.712476600078,150.0,2.0,72.0,0.02577899520000001,5,0.8963539999676868,1.1130738999927416,6,0.569448700058274,0.6879208000609651,7,1.2717158999294043,1.4720291999401525,,,60.0,69.0,58474,60.0,
77,77,0,17,15,287,1,,,,,,,,,,,session,4138.703345100046,132.0,2.0,72.0,0.02577899520000001,5,0.31693069997709244,0.46617380005773157,0,0.7026492999866605,0.8878534999676049,1,0.012070199940353632,0.07808500004466623,,,57.0,72.0,58474,60.0,
77,77,-45,18,0,288,0,,,,,,,,,,,session,4145.938314900035,126.0,2.0,72.0,0.02577899520000001,5,0.7867667999817058,0.9702703000511974,1,1.678765399963595,1.7786517000058666,7,0.5829549999907613,0.6282803999492899,,,51.0,69.0,58474,60.0,
77,77,45,18,1,289,2,,,,,,,,,,,session,4154.869172699982,156.0,2.0,72.0,0.02577899520000001,5,1.001803299994208,1.1345191999571398,7,1.5336224000202492,1.6294884000672027,1,0.011023800005204976,0.09898849995806813,,,54.0,63.0,58474,60.0,
-77,77,90,18,2,290,7,,,,,,,,,,,session,4163.786977400072,156.0,2.0,72.0,0.02577899520000001,2,2.725699399947189,2.875852799974382,0,0.034559200052171946,0.1865995000116527,0,1.693857099977322,1.8440609000390396,,,69.0,51.0,58474,60.0,
77,-77,0,18,3,291,9,,,,,,,,,,,session,4174.712158399983,150.0,2.0,72.0,0.02577899520000001,4,0.8656988000730053,1.0167526000877842,0,4.354410600033589,4.754736499977298,7,0.01101719995494932,0.1524172000354156,,,48.0,66.0,58474,60.0,
-77,77,45,18,4,292,6,,,,,,,,,,,session,4187.0710497000255,168.0,2.0,72.0,0.02577899520000001,3,1.518431800068356,1.6855155000230297,0,0.8708020000485703,1.2044689999893308,0,0.7359702000394464,1.074120600009337,,,48.0,57.0,58474,60.0,
-77,-77,-45,18,5,293,12,,,,,,,,,,,session,4197.017885399982,138.0,2.0,72.0,0.02577899520000001,3,1.3675594000378624,1.4696545000188053,1,1.2209055999992415,1.3542077000020072,6,1.8558483000379056,2.0081873999442905,,,57.0,51.0,58474,60.0,
-77,-77,0,18,6,294,13,,,,,,,,,,,session,4207.941006100038,162.0,2.0,72.0,0.02577899520000001,3,0.7537065999349579,0.8700377999339253,0,1.5411452000262216,1.6912342000287026,6,4.62997569993604,4.69827679998707,,,48.0,69.0,58474,60.0,
77,77,90,18,7,295,3,,,,,,,,,,,session,4221.291821600054,150.0,2.0,72.0,0.02577899520000001,5,1.202439900022,1.3020221999613568,6,7.821868899976835,7.939356500050053,1,1.307015600032173,1.4382422999478877,,,60.0,48.0,58474,60.0,
-77,77,-45,18,8,296,4,,,,,,,,,,,session,4237.727714900044,174.0,2.0,72.0,0.02577899520000001,2,1.5850823000073433,1.7682906000409275,1,0.9383246999932453,1.037836099974811,7,2.821718299994245,2.9715884999604896,,,54.0,60.0,58474,60.0,
-77,-77,90,18,9,297,15,,,,,,,,,,,session,4250.072165500023,162.0,2.0,72.0,0.02577899520000001,3,0.9617982000345364,1.1120262000476941,6,1.525368000031449,1.6754417000338435,1,2.5634953998960555,2.763744099996984,,,66.0,60.0,58474,60.0,
77,-77,45,18,10,298,10,,,,,,,,,,,session,4261.86202650005,168.0,2.0,72.0,0.02577899520000001,4,0.857681000023149,0.9898235000437126,7,1.715294499997981,1.8821603000396863,7,1.653885900042951,1.8553068999899551,,,57.0,72.0,58474,60.0,
-77,-77,45,18,11,299,14,,,,,,,,,,,session,4273.58958140004,156.0,2.0,72.0,0.02577899520000001,3,0.7681114999577403,0.9007363000418991,7,1.4749933000421152,1.6749714999459684,7,0.6663733000168577,0.832938399980776,,,72.0,57.0,58474,60.0,
-77,-77,45,18,11,299,14,,,materials/instructions\12_break.png,4283.22457020008,4328.393967400072,0,45.05057239998132,45.16729909996502,0.021976400050334632,45.17516360001173,,,,,,,,,,,,,,,,,,,,58474,60.0,
77,-77,90,18,12,300,11,,,,,,,,,,,session,4328.409715900081,180.0,2.0,72.0,0.02577899520000001,4,1.0064428000478074,1.1730097000254318,6,1.1220266000600532,1.3068974999478087,7,0.6517613999312744,0.8184146999847144,,,66.0,66.0,58474,60.0,
77,77,0,18,13,301,1,,,,,,,,,,,session,4339.054787300061,126.0,2.0,72.0,0.02577899520000001,5,0.2368234999012202,0.41869809990748763,0,0.6844065999612212,0.9030603999271989,7,0.5414305999875069,0.7558743000263348,,,69.0,51.0,58474,60.0,
-77,77,0,18,14,302,5,,,,,,,,,,,session,4346.677220400074,138.0,2.0,72.0,0.02577899520000001,3,1.798544800025411,1.9098538999678567,0,0.911463399999775,1.0527897999854758,0,0.011180999921634793,0.013079899945296347,,,48.0,66.0,58474,60.0,
77,-77,-45,18,15,303,8,,,,,,,,,,,session,4355.300369000062,150.0,2.0,72.0,0.02577899520000001,4,0.6669203999917954,0.765565300011076,1,2.1665240000002086,2.3333481999579817,7,1.353015000000596,1.5707660999614745,,,63.0,63.0,58474,60.0,
77,77,-45,19,0,304,0,,,,,,,,,,,session,4366.02510530001,126.0,2.0,72.0,0.02577899520000001,5,1.0197142000542954,1.1862806000281125,1,2.124381999950856,2.3498203000053763,1,0.011083499994128942,0.013077499927021563,,,57.0,54.0,58474,60.0,
-77,-77,45,19,1,305,14,,,,,,,,,,,session,4374.985811999999,150.0,2.0,72.0,0.02577899520000001,3,1.0031087000388652,1.1216694000177085,7,2.0861479999730363,2.270326100056991,1,0.4923085999907926,0.6758470999775454,,,63.0,51.0,58474,60.0,
-77,77,90,19,2,306,7,,,,,,,,,,,session,4385.12187849998,132.0,2.0,72.0,0.02577899520000001,5,1.1900745000457391,1.3409675000002608,1,0.6916319000301883,0.9404361000051722,0,0.01104400004260242,0.012941400054842234,,,63.0,72.0,58474,60.0,
-77,77,45,19,3,307,6,,,,,,,,,,,session,4393.307567100041,138.0,2.0,72.0,0.02577899520000001,2,13.68325470003765,13.91832619998604,0,0.011334799928590655,0.2351929999422282,0,0.13422289991285652,0.3184191999025643,,,51.0,72.0,58474,60.0,
-77,-77,90,19,4,308,15,,,,,,,,,,,session,4413.996064800071,138.0,2.0,72.0,0.02577899520000001,3,0.7913467000471428,0.902635799953714,6,1.418879700009711,1.619163400027901,1,10.308777100057341,10.45927810005378,,,57.0,57.0,58474,60.0,
77,-77,-45,19,5,309,8,,,,,,,,,,,session,4432.743344400078,174.0,2.0,72.0,0.02577899520000001,4,1.679666499956511,1.7964520999230444,1,0.8027032000245526,1.002966700005345,1,0.01094469998497516,0.22677139996085316,,,63.0,54.0,58474,60.0,
-77,-77,-45,19,6,310,12,,,,,,,,,,,session,4442.068071400048,144.0,2.0,72.0,0.02577899520000001,3,1.7170698998961598,1.867353399982676,1,0.8223126999801025,1.0560198000166565,1,1.5526794999605045,1.7189113999484107,,,72.0,66.0,58474,60.0,
-77,77,0,19,7,311,5,,,,,,,,,,,session,4452.837492000079,126.0,2.0,72.0,0.02577899520000001,2,1.5839593999553472,1.7678271000040695,0,1.8902758000185713,2.0908322000177577,1,2.1273278000298887,2.3421447000000626,,,66.0,51.0,58474,60.0,
77,77,45,19,8,312,2,,,,,,,,,,,session,4464.48652679997,138.0,2.0,72.0,0.02577899520000001,4,2.1170362000120804,2.266991600045003,0,0.9903901000507176,1.3049986000405625,0,0.011410399922169745,0.06733479991089553,,,66.0,72.0,58474,60.0,
77,-77,90,19,9,313,11,,,,,,,,,,,session,4474.121781900059,174.0,2.0,72.0,0.02577899520000001,5,1.1831419999944046,1.3669668000657111,1,1.0345671999966726,1.3348755000624806,0,0.5041993000777438,0.7406634000362828,,,60.0,48.0,58474,60.0,
77,-77,0,19,10,314,9,,,,,,,,,,,session,4483.718204500037,150.0,2.0,72.0,0.02577899520000001,4,0.863334699999541,0.9632947000209242,0,1.5254314999328926,1.758514799992554,1,0.18693889991845936,0.42105409991927445,,,60.0,60.0,58474,60.0,
77,-77,45,19,11,315,10,,,,,,,,,,,session,4493.455302900053,126.0,2.0,72.0,0.02577899520000001,4,4.509895399911329,4.627272899961099,0,0.6843404000392184,0.850481600034982,0,0.8863961999304593,1.1689128000289202,,,63.0,69.0,58474,60.0,
-77,-77,0,19,12,316,13,,,,,,,,,,,session,4505.86523710005,174.0,2.0,72.0,0.02577899520000001,3,0.9120696999598294,1.0790997999720275,0,1.0223552000243217,1.257753900019452,7,4.237326200003736,4.469442699919455,,,66.0,60.0,58474,60.0,
-77,77,-45,19,13,317,4,,,,,,,,,,,session,4519.790859600063,144.0,2.0,72.0,0.02577899520000001,4,3.0640541999600828,3.1972167999483645,1,1.2477493999758735,1.51374520000536,0,10.602235400001518,10.76884189993143,,,57.0,69.0,58474,60.0,
77,77,90,19,14,318,3,,,,,,,,,,,session,4541.210700100055,180.0,2.0,72.0,0.02577899520000001,2,4.343421999947168,4.561302199959755,0,1.7331673000007868,1.9000193000538275,0,0.6628036999609321,0.8637221999233589,,,69.0,60.0,58474,60.0,
77,77,0,19,15,319,1,,,,,,,,,,,session,4555.154823600082,150.0,2.0,72.0,0.02577899520000001,5,0.813504199963063,0.9635187999811023,0,1.0046337000094354,1.1871467999881133,1,1.1865620999597013,1.4542062999680638,,,63.0,57.0,58474,60.0,
77,77,0,19,15,319,1,,,materials/instructions\12_break.png,4564.737505799974,4607.655782300048,0,42.81637610006146,42.91613300004974,0.022513600066304207,42.92400130000897,,,,,,,,,,,,,,,,,,,,58474,60.0,
-77,-77,-45,20,0,320,12,,,,,,,,,,,session,4607.671590000042,156.0,2.0,72.0,0.02577899520000001,3,0.9798473999835551,1.0965457999845967,1,0.9036550000309944,1.0538159999996424,7,1.1986412999685854,1.380309599917382,,,69.0,48.0,58474,60.0,
77,-77,-45,20,1,321,8,,,,,,,,,,,session,4617.208688899991,156.0,2.0,72.0,0.02577899520000001,4,0.09903939999639988,0.2488225999986753,1,1.3757560000522062,1.5259106000885367,7,0.18543820001650602,0.27025960001628846,,,51.0,69.0,58474,60.0,
-77,77,-45,20,2,322,4,,,,,,,,,,,session,4625.823031599983,126.0,2.0,72.0,0.02577899520000001,2,1.2068357000825927,1.356467500096187,1,1.2417656999314204,1.3916953000007197,0,0.2524399000685662,0.4510941000189632,,,72.0,72.0,58474,60.0,
-77,77,0,20,3,323,5,,,,,,,,,,,session,4634.962175199995,144.0,2.0,72.0,0.02577899520000001,2,1.1299438000423834,1.227379700052552,0,0.3821445000357926,0.5492275999858975,0,0.9317595000611618,1.1484326999634504,,,63.0,54.0,58474,60.0,
77,77,0,20,4,324,1,,,,,,,,,,,session,4643.838652300066,132.0,2.0,72.0,0.02577899520000001,5,0.3193717000540346,0.48401120002381504,0,0.5700735000427812,0.786816000007093,7,0.035509000066667795,0.13697630004025996,,,66.0,69.0,58474,60.0,
77,77,90,20,5,325,3,,,,,,,,,,,session,4651.140447100042,138.0,2.0,72.0,0.02577899520000001,5,0.8868755999719724,1.087000499945134,6,1.271241300040856,1.4193784000817686,7,0.32237159996293485,0.45657939999364316,,,51.0,69.0,58474,60.0,
-77,77,45,20,6,326,6,,,,,,,,,,,session,4659.8320927000605,180.0,2.0,72.0,0.02577899520000001,2,1.39576240000315,1.4966694000177085,7,1.007535899989307,1.1788364000385627,7,0.5661418000236154,0.6835298000369221,,,48.0,51.0,58474,60.0,
-77,-77,0,20,7,327,13,,,,,,,,,,,session,4670.022999600042,156.0,2.0,72.0,0.02577899520000001,3,1.8847368999850005,2.0184089000103995,1,1.3401977999601513,1.511028999928385,1,7.239950299961492,7.353406499954872,,,69.0,48.0,58474,60.0,
77,-77,45,20,8,328,10,,,,,,,,,,,session,4686.90604989999,138.0,2.0,72.0,0.02577899520000001,5,0.9629931999370456,1.1286504999734461,1,0.04928290005773306,0.20044430007692426,0,0.5542684000683948,0.8064046000363305,,,69.0,51.0,58474,60.0,
-77,77,90,20,9,329,7,,,,,,,,,,,session,4694.8098567000125,168.0,2.0,72.0,0.02577899520000001,2,0.7246309999609366,0.8893774000462145,6,1.4232425999362022,1.5729874999960884,7,0.011015099938958883,0.04768959991633892,,,60.0,69.0,58474,60.0,
77,-77,90,20,10,330,11,,,,,,,,,,,session,4703.711954800063,156.0,2.0,72.0,0.02577899520000001,4,0.8788261000299826,1.1287710999604315,0,0.3052241000114009,0.5545422000577673,7,0.6967422999441624,0.7816794998943806,,,54.0,69.0,58474,60.0,
77,77,-45,20,11,331,0,,,,,,,,,,,session,4712.943782499991,162.0,2.0,72.0,0.02577899520000001,5,2.3384180000284687,2.5384980000089854,1,0.11925999994855374,0.32063259999267757,0,0.13598859997000545,0.3027665000408888,,,72.0,54.0,58474,60.0,
-77,-77,90,20,12,332,15,,,,,,,,,,,session,4722.361770300078,150.0,2.0,72.0,0.02577899520000001,4,1.6305753999622539,1.830594199942425,0,1.8363342999946326,2.0363791999407113,0,0.56646860006731,0.7497435000259429,,,60.0,57.0,58474,60.0,
-77,-77,45,20,13,333,14,,,,,,,,,,,session,4732.871943900012,138.0,2.0,72.0,0.02577899520000001,3,1.4891021000221372,1.6547049999935552,0,0.5863069000188261,0.7698840999510139,0,0.010905199917033315,0.012813400011509657,,,63.0,72.0,58474,60.0,
77,-77,0,20,14,334,9,,,,,,,,,,,session,4741.307780900039,168.0,2.0,72.0,0.02577899520000001,4,0.3349504000507295,0.516285500023514,0,0.5725128999911249,0.739263299969025,7,0.892365499981679,0.9982890000101179,,,63.0,63.0,58474,60.0,
77,77,45,20,15,335,2,,,,,,,,,,,session,4749.926216399996,150.0,2.0,72.0,0.02577899520000001,5,0.7278277999721467,0.9445161999901757,7,0.9735077999066561,1.1565882000140846,7,0.5498384999809787,0.6674196999520063,,,60.0,51.0,58474,60.0,
77,77,90,21,0,336,3,,,,,,,,,,,session,4758.8903857000405,168.0,2.0,72.0,0.02577899520000001,4,12.511950199957937,12.76446209999267,0,0.8806792999384925,1.0641450999537483,0,0.4222118000034243,0.5900911000790074,,,66.0,66.0,58474,60.0,
77,77,0,21,1,337,1,,,,,,,,,,,session,4779.778254200006,126.0,2.0,72.0,0.02577899520000001,5,0.604451599996537,0.7543136000167578,0,2.5428346999688074,2.7099573999876156,1,0.32408379996195436,0.490885499981232,,,69.0,72.0,58474,60.0,
-77,-77,90,21,2,338,15,,,,,,,,,,,session,4789.616385700065,156.0,2.0,72.0,0.02577899520000001,4,1.3378343000076711,1.6370939000044018,0,0.526384299970232,0.683999800006859,0,1.1489552999846637,1.2989575999090448,,,48.0,63.0,58474,60.0,
-77,-77,45,21,3,339,14,,,,,,,,,,,session,4799.32284779998,138.0,2.0,72.0,0.02577899520000001,5,1.017338400008157,1.2175101999891922,1,0.5067395999794826,0.7069689999334514,0,0.7250768999801949,0.9234940999886021,,,57.0,63.0,58474,60.0,
-77,-77,45,21,3,339,14,,,materials/instructions\12_break.png,4807.928845099988,4857.84568560007,0,49.71457009995356,49.91470169997774,0.015827499912120402,49.92263789998833,,,,,,,,,,,,,,,,,,,,58474,60.0,
