x,y,orientation,.thisRepN,.thisTrialN,.thisN,.thisIndex,.stepSize,.intensity,image_name,global_start_time,global_end_time,pressKey,pressRT,releaseRT,image_started,image_ended,name,globalTime,fixation_dur,stimulation_dur,post_fixation,opacity,locationResponse_pressKey,locationResponse_pressRT,locationResponse_releaseRT,orientationResponse_pressKey,orientationResponse_pressRT,orientationResponse_releaseRT,pasResponse_pressKey,pasResponse_pressRT,pasResponse_releaseRT,.response,finalOpacity,postLoc,postOri,ID,frameRate,
,,,0,-1,-1,0,0.0969100130080564,None,materials/instructions\1_welcome.png,2.539816399999836,34.854954200000066,0,32.02946399999928,32.313065899999856,0.05872740000086196,32.31257000000005,,,,,,,,,,,,,,,,,,,,67431,60.0,
,,,0,-1,-1,0,0.0969100130080564,None,materials/instructions\2_instruction.png,34.90810799999963,62.194845899999564,0,27.134041699999216,27.284492000000682,0.016859500001373817,27.290050900001006,,,,,,,,,,,,,,,,,,,,67431,60.0,
,,,0,-1,-1,0,0.0969100130080564,None,materials/instructions\3_location_demo.png,62.2471843000003,72.86961999999949,0,10.320105100001456,10.62038610000127,0.015479100000447943,10.627280200000314,,,,,,,,,,,,,,,,,,,,67431,60.0,
,,,0,-1,-1,0,0.0969100130080564,None,materials/instructions\4_orientation_demo.png,72.9260976000005,87.27828150000096,0,14.149866499999916,14.350137800000084,0.012291900000491296,14.364165000000867,,,,,,,,,,,,,,,,,,,,67431,60.0,
,,,0,-1,-1,0,0.0969100130080564,None,materials/instructions\5_pas_demo.png,87.33399559999998,120.62059509999926,0,33.08436149999943,33.284487299999455,0.014811299999564653,33.29233099999874,,,,,,,,,,,,,,,,,,,,67431,60.0,
77,77,0,0,-1,-1,0,0.0969100130080564,None,,,,,,,,,session,120.63623340000049,174.0,2.0,72.0,0.1,5,1.641995300000417,1.875893399999768,1,2.609996499999397,2.8434130999994522,6,1.2192718000005698,1.4697495000000345,,,,,67431,60.0,
77,77,90,0,-1,-1,0,0.0969100130080564,None,,,,,,,,,session,131.0982366999997,126.0,2.0,72.0,0.1,5,1.3651666000005207,1.584277399999337,7,1.9912313999993785,2.222458500000357,6,1.7085876999990433,1.9419308999986242,,,,,67431,60.0,
77,77,-45,0,-1,-1,0,0.0969100130080564,None,,,,,,,,,session,140.95712529999946,132.0,2.0,72.0,0.1,5,1.4263327000007848,1.6265148000002227,7,1.759149499999694,1.959364899999855,7,1.3359412000008888,1.5177330000005895,,,,,67431,60.0,
77,77,45,0,-1,-1,0,0.0969100130080564,None,,,,,,,,,session,149.64373259999957,144.0,2.0,72.0,0.1,5,1.0983754999997473,1.2517221999987669,1,1.0882195999984106,1.2753751000000193,7,1.3612540000012814,1.5112097000001086,,,,,67431,60.0,
-77,77,-45,0,-1,-1,0,0.0969100130080564,None,,,,,,,,,session,157.4742213999998,180.0,2.0,72.0,0.1,2,1.2625869999992574,1.4623121000004176,1,2.7550099000000046,2.9384069999996427,7,0.9693932999998651,1.085485300000073,,,,,67431,60.0,
,,,0,-1,-1,0,0.0969100130080564,None,materials/instructions\10_staircase_start.png,167.38841329999923,186.00316620000012,0,18.430920500000866,18.612630100000388,0.0209063000002061,18.620589800000744,,,,,,,,,,,,,,,,,,,,67431,60.0,
,,,0,0,-1,0,0.0969100130080564,0.1,,,,,,,,,staircase,186.0182703999999,168.0,2.0,72.0,0.1,,,,7,3.0597185999995418,3.1421599999994214,,,,0,,,,67431,60.0,
,,,0,1,-1,0,0.0969100130080564,0.125,,,,,,,,,staircase,193.27628750000076,138.0,2.0,72.0,0.125,,,,6,4.396737100001701,4.51001720000022,,,,1,,,,67431,60.0,
,,,0,2,-1,0,0.0969100130080564,0.1,,,,,,,,,staircase,201.4024114999993,132.0,2.0,72.0,0.1,,,,7,1.3713774000007106,1.4707708000005368,,,,0,,,,67431,60.0,
,,,0,3,-1,0,0.0969100130080564,0.125,,,,,,,,,staircase,206.3860368000005,162.0,2.0,72.0,0.125,,,,6,1.5309371000003011,1.6641105000016978,,,,1,,,,67431,60.0,
,,,0,4,-1,0,0.0969100130080564,0.125,,,,,,,,,staircase,212.05914680000024,180.0,2.0,72.0,0.125,,,,1,0.9806705999999394,1.1466129000000365,,,,0,,,,67431,60.0,
,,,0,5,-1,0,0.0969100130080564,0.15625,,,,,,,,,staircase,217.52820509999947,126.0,2.0,72.0,0.15625,,,,0,1.1698202000006859,1.3902966000005108,,,,1,,,,67431,60.0,
,,,0,6,-1,0,0.0969100130080564,0.15625,,,,,,,,,staircase,222.65608170000087,138.0,2.0,72.0,0.15625,,,,1,1.0970730000008189,1.2795354000008956,,,,0,,,,67431,60.0,
,,,0,7,-1,0,0.0969100130080564,0.1953125,,,,,,,,,staircase,227.5555805999993,132.0,2.0,72.0,0.1953125,,,,7,1.2423404000001028,1.409362999998848,,,,0,,,,67431,60.0,
,,,0,8,-1,0,0.0969100130080564,0.244140625,,,,,,,,,staircase,232.47401440000067,174.0,2.0,72.0,0.244140625,,,,1,0.9443370999997569,1.1277270000009594,,,,0,,,,67431,60.0,
,,,0,9,-1,0,0.0969100130080564,0.30517578125,,,,,,,,,staircase,237.81082570000035,162.0,2.0,72.0,0.30517578125,,,,1,1.9558901000000333,2.176951999999801,,,,0,,,,67431,60.0,
,,,0,10,-1,0,0.0969100130080564,0.3814697265625,,,,,,,,,staircase,244.05562049999935,126.0,2.0,72.0,0.3814697265625,,,,7,1.4931248000011692,1.6961860999999772,,,,0,,,,67431,60.0,
,,,0,11,-1,0,0.0969100130080564,0.476837158203125,,,,,,,,,staircase,249.24030210000092,144.0,2.0,72.0,0.476837158203125,,,,0,1.2433834000003117,1.4101670000000013,,,,1,,,,67431,60.0,
,,,0,12,-1,0,0.0969100130080564,0.476837158203125,,,,,,,,,staircase,254.35634650000065,156.0,2.0,72.0,0.476837158203125,,,,1,1.082466600000771,1.3326730000007956,,,,0,,,,67431,60.0,
,,,0,13,-1,0,0.0969100130080564,0.5960464477539062,,,,,,,,,staircase,259.5952995000007,144.0,2.0,72.0,0.5960464477539062,,,,7,0.6398128000000725,0.9344789000006131,,,,0,,,,67431,60.0,
,,,0,14,-1,0,0.0969100130080564,0.7450580596923828,,,,,,,,,staircase,264.2667001000009,150.0,2.0,72.0,0.7450580596923828,,,,0,1.0590627000001405,1.3730051000002277,,,,1,,,,67431,60.0,
,,,0,15,-1,0,0.0969100130080564,0.7450580596923828,,,,,,,,,staircase,270.02085500000067,162.0,2.0,72.0,0.7450580596923828,,,,1,1.0669825999993918,1.2837877999991179,,,,0,,,,67431,60.0,
,,,0,16,-1,0,0.0969100130080564,0.9313225746154785,,,,,,,,,staircase,275.3221933999994,144.0,2.0,72.0,0.9313225746154785,,,,7,0.7141883999993297,0.9318332999991981,,,,0,,,,67431,60.0,
,,,0,17,-1,0,0.0969100130080564,1,,,,,,,,,staircase,279.9598191999994,144.0,2.0,72.0,1,,,,7,0.8355072000013024,1.1182280000011815,,,,0,,,,67431,60.0,
,,,0,18,-1,0,0.0969100130080564,1,,,,,,,,,staircase,284.7802520000005,150.0,2.0,72.0,1,,,,0,0.7920654000008653,1.058834500001467,,,,1,,,,67431,60.0,
,,,0,19,-1,0,0.0969100130080564,1,,,,,,,,,staircase,290.27334900000096,162.0,2.0,72.0,1,,,,6,1.026101600000402,1.2426692999997613,,,,1,,,,67431,60.0,
,,,0,20,-1,0,0.0969100130080564,0.8,,,,,,,,,staircase,295.53730279999945,174.0,2.0,72.0,0.8,,,,6,0.5058047000002261,0.7558435999999347,,,,1,,,,67431,60.0,
,,,0,21,-1,0,0.0969100130080564,0.8,,,,,,,,,staircase,300.5077504000001,132.0,2.0,72.0,0.8,,,,6,0.66195130000051,0.897524699999849,,,,1,,,,67431,60.0,
,,,0,22,-1,0,0.0969100130080564,0.64,,,,,,,,,staircase,304.91279790000044,144.0,2.0,72.0,0.64,,,,0,0.9726826000005531,1.2177110000011453,,,,1,,,,67431,60.0,
,,,0,23,-1,0,0.0969100130080564,0.64,,,,,,,,,staircase,310.05147279999983,144.0,2.0,72.0,0.64,,,,7,0.9178035999993881,1.1490673999996943,,,,0,,,,67431,60.0,
,,,0,24,-1,0,0.0969100130080564,0.8,,,,,,,,,staircase,314.97144189999926,150.0,2.0,72.0,0.8,,,,7,1.5136155000000144,1.7318292999989353,,,,0,,,,67431,60.0,
,,,0,25,-1,0,0.0969100130080564,1.0,,,,,,,,,staircase,320.5086513999995,144.0,2.0,72.0,1.0,,,,7,1.2313482999998087,1.4323915999993915,,,,0,,,,67431,60.0,
,,,0,26,-1,0,0.0969100130080564,1,,,,,,,,,staircase,325.66059099999984,144.0,2.0,72.0,1,,,,6,0.39963369999895804,0.5829440999987128,,,,1,,,,67431,60.0,
,,,0,27,-1,0,0.0969100130080564,1,,,,,,,,,staircase,329.9562862999992,138.0,2.0,72.0,1,,,,1,0.4049037999993743,0.6725160999994841,,,,0,,,,67431,60.0,
,,,0,28,-1,0,0.0969100130080564,1,,,,,,,,,staircase,334.83871910000016,132.0,2.0,72.0,1,,,,0,0.7754808999998204,1.043418199998996,,,,1,,,,67431,60.0,
,,,0,29,-1,0,0.0969100130080564,1,,,,,,,,,staircase,339.3900682000003,126.0,2.0,72.0,1,,,,0,0.6939103000004252,1.029620999999679,,,,1,,,,67431,60.0,
,,,0,30,-1,0,0.0969100130080564,0.8,,,,,,,,,staircase,343.8255609000007,132.0,2.0,72.0,0.8,,,,1,1.3265229999997246,1.560432000000219,,,,0,,,,67431,60.0,
,,,0,31,-1,0,0.0969100130080564,1.0,,,,,,,,,staircase,348.89645720000044,156.0,2.0,72.0,1.0,,,,1,0.6031213000005664,0.8749556000002485,,,,0,,,,67431,60.0,
,,,0,32,-1,0,0.0969100130080564,1,,,,,,,,,staircase,353.8566869999995,168.0,2.0,72.0,1,,,,1,0.5431613000000652,0.8268197999987024,,,,0,,,,67431,60.0,
,,,0,33,-1,0,0.0969100130080564,1,,,,,,,,,staircase,359.0048041000009,144.0,2.0,72.0,1,,,,6,1.2437577000000601,1.4436734000009892,,,,1,,,,67431,60.0,
,,,0,34,-1,0,0.0969100130080564,1,,,,,,,,,staircase,364.1579560000009,156.0,2.0,72.0,1,,,,7,0.7146663999992597,0.9481113000001642,,,,0,,,,67431,60.0,
,,,0,35,-1,0,0.0969100130080564,1,,,,,,,,,staircase,369.0110370000002,180.0,2.0,72.0,1,,,,0,0.6608364000003348,1.0023626999991393,,,,1,,,,67431,60.0,
,,,0,36,-1,0,0.0969100130080564,1,,,,,,,,,staircase,374.32241559999966,150.0,2.0,72.0,1,,,,0,0.8738484000004973,1.0739475000009406,,,,1,,,,67431,60.0,
,,,0,37,-1,0,0.0969100130080564,0.8,,,,,,,,,staircase,379.85640710000007,174.0,2.0,72.0,0.8,,,,7,0.8410551999986637,1.0413343000000168,,,,0,,,,67431,60.0,
,,,0,38,-1,0,0.0969100130080564,1.0,,,,,,,,,staircase,385.1065598999994,126.0,2.0,72.0,1.0,,,,1,0.44711219999953755,0.6473325999995723,,,,0,,,,67431,60.0,
,,,0,39,-1,0,0.0969100130080564,1,,,,,,,,,staircase,389.16150650000054,138.0,2.0,72.0,1,,,,0,0.7427397999999812,0.9425295000000915,,,,1,,,,67431,60.0,
,,,0,40,-1,0,0.0969100130080564,1,,,,,,,,,staircase,393.71316260000094,174.0,2.0,72.0,1,,,,0,1.2569005000004836,1.4738200000010693,,,,1,,,,67431,60.0,
,,,0,41,-1,0,0.0969100130080564,0.8,,,,,,,,,staircase,399.92450950000057,168.0,2.0,72.0,0.8,,,,6,0.3425465999989683,0.544304099999863,,,,1,,,,67431,60.0,
,,,0,42,-1,0,0.0969100130080564,0.8,,,,,,,,,staircase,404.59056950000013,156.0,2.0,72.0,0.8,,,,7,0.8440927000010561,1.0443038000012166,,,,0,,,,67431,60.0,
,,,0,43,-1,0,0.0969100130080564,1.0,,,,,,,,,staircase,409.54128820000005,180.0,2.0,72.0,1.0,,,,7,0.8313400000006368,1.0139436000008573,,,,0,,,,67431,60.0,
,,,0,44,-1,0,0.0969100130080564,1,,,,,,,,,staircase,414.86255039999924,174.0,2.0,72.0,1,,,,7,0.4024604999995063,0.591511000000537,,,,0,,,,67431,60.0,
,,,0,45,-1,0,0.0969100130080564,1,,,,,,,,,staircase,419.85704609999993,162.0,2.0,72.0,1,,,,0,0.3771231999999145,0.6104806999992434,,,,1,,,,67431,60.0,
,,,0,46,-1,0,0.0969100130080564,1,,,,,,,,,staircase,424.7881748,150.0,2.0,72.0,1,,,,1,1.2388945999991847,1.4233581999997114,,,,0,,,,67431,60.0,
,,,0,47,-1,0,0.0969100130080564,1,,,,,,,,,staircase,430.0431535000007,168.0,2.0,72.0,1,,,,6,0.8140788999990036,0.9984781999992265,,,,1,,,,67431,60.0,
,,,0,48,-1,0,0.0969100130080564,1,,,,,,,,,staircase,435.14403649999986,150.0,2.0,72.0,1,,,,1,0.5966736000009405,0.8281935000013618,,,,0,,,,67431,60.0,
,,,0,49,-1,0,0.0969100130080564,1,,,,,,,,,staircase,439.7810282999999,174.0,2.0,72.0,1,,,,6,0.8092281999997795,0.9915278999997099,,,,1,,,,67431,60.0,
,,,0,50,-1,0,0.0969100130080564,1,,,,,,,,,staircase,445.5404075000006,138.0,2.0,72.0,1,,,,0,0.29203140000026906,0.524926800000685,,,,1,,,,67431,60.0,
,,,0,51,-1,0,0.0969100130080564,0.8,,,,,,,,,staircase,449.68846870000016,156.0,2.0,72.0,0.8,,,,1,0.3773715999996057,0.5607844000005571,,,,0,,,,67431,60.0,
,,,0,52,-1,0,0.0969100130080564,1.0,,,,,,,,,staircase,454.1585421,174.0,2.0,72.0,1.0,,,,1,0.3753992999991169,0.6255726999988838,,,,0,,,,67431,60.0,
,,,0,53,-1,0,0.0969100130080564,1,,,,,,,,,staircase,458.99695410000095,168.0,2.0,72.0,1,,,,6,0.40600389999963227,0.6055244999988645,,,,1,,,,67431,60.0,
,,,0,54,-1,0,0.0969100130080564,1,,,,,,,,,staircase,463.7733766000001,132.0,2.0,72.0,1,,,,0,0.4585315999993327,0.659118399998988,,,,1,,,,67431,60.0,
,,,0,55,-1,0,0.0969100130080564,0.8,,,,,,,,,staircase,468.30615709999984,168.0,2.0,72.0,0.8,,,,7,1.032016699999076,1.265763399998832,,,,0,,,,67431,60.0,
,,,0,56,-1,0,0.0969100130080564,1.0,,,,,,,,,staircase,473.69111110000085,144.0,2.0,72.0,1.0,,,,0,0.6972141000005649,0.8973893000002136,,,,1,,,,67431,60.0,
,,,0,57,-1,0,0.0969100130080564,1.0,,,,,,,,,staircase,478.2933443000002,162.0,2.0,72.0,1.0,,,,1,0.3470244999989518,0.5618911999990814,,,,0,,,,67431,60.0,
,,,0,58,-1,0,0.0969100130080564,1,,,,,,,,,staircase,482.8637548000006,174.0,2.0,72.0,1,,,,1,0.4514756999997189,0.7871940000004543,,,,0,,,,67431,60.0,
,,,0,59,-1,0,0.0969100130080564,1,,,,,,,,,staircase,488.44357239999954,162.0,2.0,72.0,1,,,,7,0.3592945000000327,0.5226168000008329,,,,0,,,,67431,60.0,
,,,0,60,-1,0,0.0969100130080564,1,,,,,,,,,staircase,492.9912208000005,132.0,2.0,72.0,1,,,,6,0.3116383999986283,0.5118425999989995,,,,1,,,,67431,60.0,
,,,0,61,-1,0,0.0969100130080564,1,,,,,,,,,staircase,497.0078974999997,180.0,2.0,72.0,1,,,,0,0.6137894000003143,0.9132881000005,,,,1,,,,67431,60.0,
,,,0,62,-1,0,0.0969100130080564,0.8,,,,,,,,,staircase,502.22833530000025,168.0,2.0,72.0,0.8,,,,1,1.0643354000003455,1.397966099999394,,,,0,,,,67431,60.0,
,,,0,63,-1,0,0.0969100130080564,1.0,,,,,,,,,staircase,507.73590739999963,174.0,2.0,72.0,1.0,,,,0,0.8063655999994808,1.0397219999995286,,,,1,,,,67431,60.0,
,,,0,64,-1,0,0.0969100130080564,1.0,,,,,,,,,staircase,513.4727225999995,132.0,2.0,72.0,1.0,,,,0,0.3919236000001547,0.6600030999998125,,,,1,,,,67431,60.0,
,,,0,65,-1,0,0.0969100130080564,0.8,,,,,,,,,staircase,517.6418666000009,150.0,2.0,72.0,0.8,,,,6,0.6130118999990373,0.8298438999991049,,,,1,,,,67431,60.0,
,,,0,66,-1,0,0.0969100130080564,0.8,,,,,,,,,staircase,522.2935546000008,156.0,2.0,72.0,0.8,,,,1,0.9948387999993429,1.195335200000045,,,,0,,,,67431,60.0,
,,,0,67,-1,0,0.0969100130080564,1.0,,,,,,,,,staircase,527.3979091000001,126.0,2.0,72.0,1.0,,,,6,0.5749464000000444,0.7712329999994836,,,,1,,,,67431,60.0,
,,,0,68,-1,0,0.0969100130080564,1.0,,,,,,,,,staircase,532.4043498999999,126.0,2.0,72.0,1.0,,,,6,0.3413361000002624,0.5273770999992848,,,,1,,,,67431,60.0,
,,,0,69,-1,0,0.0969100130080564,0.8,,,,,,,,,staircase,536.3756849000001,174.0,2.0,72.0,0.8,,,,6,0.3473245000004681,0.5798356000013882,,,,1,,,,67431,60.0,
,,,0,-1,-1,0,,,materials/instructions\11_session_start.png,541.1887394999994,554.7688371000004,0,13.428208900000755,13.578329300000405,0.021672500000931905,13.589181700001063,,,,,,,,,,,,,,,,,,,,67431,60.0,
,,,0,-1,-1,0,,,,,,,,,,,,,,,,,,,,,,,,,,,0.95,,,67431,60.0,
77,-77,-45,0,0,0,8,,,,,,,,,,,session,554.7899804999997,180.0,2.0,72.0,0.95,4,1.5964588999995613,1.7628244000006816,7,0.7093206999998074,0.8434916999995039,7,1.2801755000000412,1.363590099999783,,,63.0,69.0,67431,60.0,
77,-77,45,0,1,1,10,,,,,,,,,,,session,565.4280349000001,144.0,2.0,72.0,0.95,4,0.8815119000009872,1.047390900001119,1,0.7306599999992613,0.8992005999989487,7,1.312277400000312,1.398364799999399,,,66.0,51.0,67431,60.0,
77,-77,0,0,2,2,9,,,,,,,,,,,session,574.5776409999999,132.0,2.0,72.0,0.95,4,1.0577849000001152,1.2400782000004256,0,0.9454218999999284,1.1286154999997962,7,0.6702831999991758,0.9530611999998655,,,48.0,60.0,67431,60.0,
-77,77,0,0,3,3,5,,,,,,,,,,,session,583.6586122000008,156.0,2.0,72.0,0.95,2,1.0085496000010608,1.1764671000000817,0,0.48119709999991755,0.663661200000206,7,1.0680933000003279,1.4013463000010233,,,51.0,72.0,67431,60.0,
-77,77,45,0,4,4,6,,,,,,,,,,,session,593.0165581000001,162.0,2.0,72.0,0.95,2,1.1116748000004009,1.3438772999998037,1,0.44460000000071886,0.6279372999997577,7,1.532525100001294,1.7324914000000717,,,63.0,54.0,67431,60.0,
77,-77,90,0,5,5,11,,,,,,,,,,,session,602.9739322000005,180.0,2.0,72.0,0.95,4,0.8801970000004076,1.08048719999897,6,0.4951569000004383,0.6461271999996825,7,0.991934300000139,1.158099399999628,,,69.0,72.0,67431,60.0,
77,77,0,0,6,6,1,,,,,,,,,,,session,612.6466354000004,174.0,2.0,72.0,0.95,5,0.8160961000012321,0.9837586000012379,0,0.40788269999939075,0.5955699000005552,7,0.6461135999998078,0.8800164999993285,,,63.0,57.0,67431,60.0,
-77,-77,0,0,7,7,13,,,,,,,,,,,session,621.4752024000009,156.0,2.0,72.0,0.95,3,1.7046387000009418,1.9213599000013346,0,0.5425727000001643,0.7756521000010252,7,0.5389706999994814,0.8351154000010865,,,48.0,51.0,67431,60.0,
77,77,90,0,8,8,3,,,,,,,,,,,session,630.7292140000009,174.0,2.0,72.0,0.95,5,0.6619583000010607,0.8114128000015626,6,0.4656065999988641,0.6655877999983204,7,0.2514886999997543,0.4675160999995569,,,48.0,66.0,67431,60.0,
-77,77,-45,0,9,9,4,,,,,,,,,,,session,638.9174734999997,138.0,2.0,72.0,0.95,2,1.0408000000006723,1.1911383000006026,7,0.6794300000001385,0.8803837999985262,7,0.4876982000005228,0.6862278000007791,,,69.0,51.0,67431,60.0,
-77,-77,-45,0,10,10,12,,,,,,,,,,,session,648.010823300001,168.0,2.0,72.0,0.95,3,1.3932829000004858,1.6441699000006338,7,0.7834125000008498,1.0003194000000803,7,0.7034622999999556,0.8878807000000961,,,72.0,54.0,67431,60.0,
-77,-77,45,0,11,11,14,,,,,,,,,,,session,657.8826040999993,138.0,2.0,72.0,0.95,3,0.8067843999997422,1.0057689000004757,1,0.5035298000002513,0.6912057000008645,7,1.1835484000002907,1.3166626000001997,,,48.0,51.0,67431,60.0,
-77,77,90,0,12,12,7,,,,,,,,,,,session,666.3281258000006,180.0,2.0,72.0,0.95,2,0.5110006999984762,0.7111215999993874,6,0.44584630000099423,0.6126174000000901,7,0.3665318000003026,0.6325362999996287,,,57.0,57.0,67431,60.0,
77,77,45,0,13,13,2,,,,,,,,,,,session,674.6279472000006,150.0,2.0,72.0,0.95,5,0.4965126000006421,0.6823352000010345,1,0.4097111000010045,0.5431317000002309,7,0.5037825999988854,0.6685198999985005,,,66.0,60.0,67431,60.0,
77,77,-45,0,14,14,0,,,,,,,,,,,session,682.5833438000009,162.0,2.0,72.0,0.95,5,1.469565599998532,1.602890899999693,7,0.9806781000006595,1.0974640999993426,7,0.9224441000005754,1.0883345999991434,,,72.0,57.0,67431,60.0,
-77,-77,90,0,15,15,15,,,,,,,,,,,session,693.2597000000005,174.0,2.0,72.0,0.95,3,0.7777093000004243,0.9762277999998332,6,0.4147623000008025,0.598867100001371,7,0.5009135000000242,0.7343853000002127,,,72.0,66.0,67431,60.0,
77,77,45,1,0,16,2,,,,,,,,,,,session,702.2163249000005,156.0,2.0,72.0,0.95,5,0.6054836999992403,0.794280099999014,1,1.0304957999996986,1.2468697000003885,6,0.6703082000003633,0.8901617000010447,,,57.0,66.0,67431,60.0,
-77,-77,45,1,1,17,14,,,,,,,,,,,session,711.2452974999997,144.0,2.0,72.0,0.95,3,0.9243107000002055,1.1242670999999973,1,0.5844930999992357,0.7846577999989677,7,0.5056773999986035,0.7032426999994641,,,54.0,69.0,67431,60.0,
77,-77,-45,1,2,18,8,,,,,,,,,,,session,719.7632400000002,180.0,2.0,72.0,0.95,4,0.946291399999609,1.112151499999527,7,0.6745676999998977,0.9247371000001294,7,3.8941652000012255,4.010846099999981,,,66.0,63.0,67431,60.0,
-77,77,0,1,3,19,5,,,,,,,,,,,session,732.4263081000008,126.0,2.0,72.0,0.95,2,0.839117499999702,1.0391531000004761,0,0.3269256999992649,0.6106509999990521,7,0.30357790000016394,0.4695762999999715,,,54.0,69.0,67431,60.0,
-77,77,0,1,3,19,5,,,materials/instructions\12_break.png,740.1735621999997,755.4418585000003,2,15.213008499998978,15.266182800000024,0.02198349999889615,15.272646299999906,,,,,,,,,,,,,,,,,,,,67431,60.0,
-77,-77,-45,1,4,20,12,,,,,,,,,,,session,755.456812800001,150.0,2.0,72.0,0.95,3,1.050880300001154,1.1176649000008183,7,0.7829108999994787,0.90067850000014,7,0.6026039000007586,0.7359969000008277,,,57.0,63.0,67431,60.0,
77,77,0,1,5,21,1,,,,,,,,,,,session,764.1627638000009,174.0,2.0,72.0,0.95,5,0.7288778999991337,0.8446580999989237,0,0.42882790000112436,0.5794526999998197,7,0.5715579999996407,0.7219819000001735,,,48.0,72.0,67431,60.0,
77,-77,45,1,6,22,10,,,,,,,,,,,session,772.6737864000006,180.0,2.0,72.0,0.95,4,0.5568733000000066,1.0068976000002294,1,0.8806624999997439,1.166031100001419,7,0.35100880000027246,0.5687013000006118,,,48.0,69.0,67431,60.0,
-77,-77,90,1,7,23,15,,,,,,,,,,,session,782.3267001999993,162.0,2.0,72.0,0.95,3,0.7487055999990844,0.9322264999991603,6,0.6173952999997709,0.7507153000005928,7,0.46836480000092706,0.6169288000000961,,,54.0,51.0,67431,60.0,
-77,-77,0,1,8,24,13,,,,,,,,,,,session,790.5337541000008,150.0,2.0,72.0,0.95,3,0.8192097999999532,0.9578514000004361,0,0.34356619999925897,0.5605209999994258,7,0.38663159999850905,0.6152987999994366,,,51.0,66.0,67431,60.0,
77,77,90,1,9,25,3,,,,,,,,,,,session,798.642303300001,144.0,2.0,72.0,0.95,5,0.4571102999998402,0.6738036999995529,6,0.4311014000013529,0.6311982000006537,7,0.3184944999993604,0.5355896000000939,,,63.0,57.0,67431,60.0,
-77,77,45,1,10,26,6,,,,,,,,,,,session,806.3281726000005,138.0,2.0,72.0,0.95,2,1.0960361999987072,1.2460109000003285,1,0.547452599999815,0.7633900000000722,7,0.3698294000005262,0.5697455999998056,,,72.0,63.0,67431,60.0,
-77,77,90,1,11,27,7,,,,,,,,,,,session,814.9192108999996,138.0,2.0,72.0,0.95,2,0.8399905000005674,0.9903410999995685,6,0.5108202000010351,0.6943007000008947,7,0.7858012999986386,0.9682496999994328,,,60.0,66.0,67431,60.0,
-77,77,-45,1,12,28,4,,,,,,,,,,,session,824.1115697999994,156.0,2.0,72.0,0.95,2,0.934295099999872,1.083759999999529,7,0.5490436000000045,0.7354668999996647,7,0.8713324000000284,1.0383277999990241,,,48.0,54.0,67431,60.0,
77,-77,0,1,13,29,9,,,,,,,,,,,session,832.6982210000006,180.0,2.0,72.0,0.95,4,0.5107324999989942,0.7130529999994906,0,0.3616664999990462,0.5613186999999016,7,0.29514709999966726,0.49905820000094536,,,69.0,60.0,67431,60.0,
77,-77,90,1,14,30,11,,,,,,,,,,,session,841.0803295000005,174.0,2.0,72.0,0.95,4,1.0647864999991725,1.2480632999995578,6,0.34606990000065707,0.5126034000004438,7,0.3465653999992355,0.5303894999997283,,,54.0,63.0,67431,60.0,
77,77,-45,1,15,31,0,,,,,,,,,,,session,849.679247,126.0,2.0,72.0,0.95,5,1.1481377000000066,1.314845900000364,7,0.49716620000072,0.6811632999997528,7,0.2873380000000907,0.5045319000000745,,,48.0,69.0,67431,60.0,
77,77,90,2,0,32,3,,,,,,,,,,,session,857.6685197000006,144.0,2.0,72.0,0.95,5,0.33152700000027835,0.5215922000006685,6,0.4128664999989269,0.6446286999998847,7,0.2833571999999549,0.5674995999997918,,,69.0,48.0,67431,60.0,
-77,77,-45,2,1,33,4,,,,,,,,,,,session,865.4114076999995,162.0,2.0,72.0,0.95,2,0.8107471000002988,1.0087647000000288,7,0.6001161000003776,0.8326022000001103,7,0.5181835000003048,0.7513752000013483,,,63.0,72.0,67431,60.0,
-77,77,90,2,2,34,7,,,,,,,,,,,session,874.3974665000005,138.0,2.0,72.0,0.95,2,0.9290569000004325,1.1631379999998899,6,0.4629672999999457,0.6633292999995319,7,1.0220235000015236,1.288841700001285,,,51.0,72.0,67431,60.0,
-77,-77,-45,2,3,35,12,,,,,,,,,,,session,883.3076887999996,150.0,2.0,72.0,0.95,3,0.739829500000269,1.7741777999999613,7,3.6582736000000295,3.907395899999756,6,0.7349070000000211,0.95184860000154,,,63.0,57.0,67431,60.0,
-77,77,0,2,4,36,5,,,,,,,,,,,session,896.3466926000001,168.0,2.0,72.0,0.95,2,0.46264700000028824,0.6462009999995644,0,0.3589314999990165,0.5583129999995435,7,0.9056240000008984,1.0278717000001052,,,60.0,72.0,67431,60.0,
77,-77,-45,2,5,37,8,,,,,,,,,,,session,905.0300547000006,144.0,2.0,72.0,0.95,4,0.7749091999994562,0.9249483999992663,7,0.3791254999996454,0.5295858999998018,7,0.5140669000011258,0.6813825000008364,,,48.0,48.0,67431,60.0,
77,-77,0,2,6,38,9,,,,,,,,,,,session,913.1621787000004,168.0,2.0,72.0,0.95,4,0.5112912999993569,0.7273289000004297,0,0.3111796000011964,0.49523109999972803,7,0.5368933999998262,0.7203597999996418,,,69.0,63.0,67431,60.0,
77,77,-45,2,7,39,0,,,,,,,,,,,session,921.5503497000009,174.0,2.0,72.0,0.95,5,1.1126886000001832,1.2945060000001831,7,0.6375501000002259,0.8378479000002699,7,0.2490646000005654,0.494073899999421,,,51.0,57.0,67431,60.0,
77,77,-45,2,7,39,0,,,materials/instructions\12_break.png,930.3583161999995,946.6153830999992,0,16.12165339999956,16.25501439999971,0.02034060000005411,16.2625936000004,,,,,,,,,,,,,,,,,,,,67431,60.0,
-77,-77,45,2,8,40,14,,,,,,,,,,,session,946.6308066000001,156.0,2.0,72.0,0.95,3,0.5014285999986896,0.7683108000001084,1,0.3945479999983945,0.5776088999991771,7,0.5174533999997948,0.7177816999992501,,,60.0,66.0,67431,60.0,
-77,77,45,2,9,41,6,,,,,,,,,,,session,955.3768048000002,162.0,2.0,72.0,0.95,2,0.49304490000031365,0.6931765999997879,1,0.3825792999996338,0.6002396999992925,7,0.5839140000007319,0.8033130000003439,,,60.0,48.0,67431,60.0,
77,-77,90,2,10,42,11,,,,,,,,,,,session,963.4325294000009,174.0,2.0,72.0,0.95,4,0.48145019999901706,0.6459233999994467,6,0.34623370000008435,0.5134583999988536,7,0.5025272000002587,0.7026299000008294,,,66.0,60.0,67431,60.0,
-77,-77,90,2,11,43,15,,,,,,,,,,,session,971.8410334,162.0,2.0,72.0,0.95,3,0.39372050000019954,0.609779599999456,6,0.3807064000011451,0.6143604000008054,7,0.582304399998975,0.7826358999991498,,,69.0,54.0,67431,60.0,
77,77,45,2,12,44,2,,,,,,,,,,,session,980.4619143,180.0,2.0,72.0,0.95,5,0.3634371000007377,0.563566400000127,1,0.373508499998934,0.6230345999993006,7,0.3225450000009005,0.503866700000799,,,57.0,66.0,67431,60.0,
77,77,0,2,13,45,1,,,,,,,,,,,session,988.6504836999993,162.0,2.0,72.0,0.95,5,0.41638090000014927,0.6572060999988025,0,0.3364128000011988,0.5364891999997781,7,0.4144149000003381,0.5679834999991726,,,60.0,51.0,67431,60.0,
-77,-77,0,2,14,46,13,,,,,,,,,,,session,996.4306262999999,144.0,2.0,72.0,0.95,3,0.4615370999999868,0.6629661999995733,0,0.37967439999920316,0.6131762000004528,7,0.6042694000007032,0.8018974000005983,,,63.0,66.0,67431,60.0,
77,-77,45,2,15,47,10,,,,,,,,,,,session,1004.4968934000008,156.0,2.0,72.0,0.95,4,0.924303100000543,1.1411633000006987,1,0.3305190999999468,0.5807173000011971,7,0.5053996000006009,0.6892031000006682,,,72.0,69.0,67431,60.0,
-77,-77,45,3,0,48,14,,,,,,,,,,,session,1013.3025574999992,150.0,2.0,72.0,0.95,3,0.4752323000011529,0.7426092000005156,1,0.33056720000058704,0.5476486999996268,7,0.6361727000003157,0.8515038000005006,,,72.0,54.0,67431,60.0,
-77,77,45,3,1,49,6,,,,,,,,,,,session,1022.1433684999993,162.0,2.0,72.0,0.95,2,0.5628381000005902,0.7465100000008533,1,0.39592069999889645,0.6291065000004892,7,0.587753599998905,0.7886514000001625,,,54.0,48.0,67431,60.0,
77,-77,45,3,2,50,10,,,,,,,,,,,session,1030.1658905000004,132.0,2.0,72.0,0.95,4,0.5351196999999956,0.8021485000008397,1,0.5288192000007257,0.7280121000003419,7,0.5258831999999529,0.7271853000002011,,,51.0,63.0,67431,60.0,
77,77,45,3,3,51,2,,,,,,,,,,,session,1037.9756235000004,126.0,2.0,72.0,0.95,5,0.4258917000006477,0.6425503999998909,1,0.44866580000052636,0.6671631000008347,7,0.4774413999984972,0.6933131999994657,,,51.0,69.0,67431,60.0,
-77,-77,90,3,4,52,15,,,,,,,,,,,session,1045.9643264999995,180.0,2.0,72.0,0.95,3,0.7128970000012487,0.8965764000004128,6,1.6502571999990323,1.850135999999111,7,0.26829349999934493,0.48485149999942223,,,66.0,57.0,67431,60.0,
-77,77,90,3,5,53,7,,,,,,,,,,,session,1055.6857791000002,150.0,2.0,72.0,0.95,2,0.5411930000009306,0.7413823000006232,6,0.3772986000003584,0.5637526999998954,7,0.4873855999994703,0.6858431999989989,,,57.0,63.0,67431,60.0,
-77,-77,-45,3,6,54,12,,,,,,,,,,,session,1063.7458301000006,174.0,2.0,72.0,0.95,3,1.0646823999995831,1.2825087000001076,7,0.3634182999994664,0.5466985000002751,7,0.5674381000007997,0.7508402000003116,,,69.0,66.0,67431,60.0,
77,77,-45,3,7,55,0,,,,,,,,,,,session,1072.9145568000004,162.0,2.0,72.0,0.95,5,0.45761449999918113,0.6888582999999926,7,0.3124502999999095,0.5134766999999556,7,0.7887108999984775,1.055376399999659,,,54.0,63.0,67431,60.0,
-77,77,0,3,8,56,5,,,,,,,,,,,session,1081.2891122,174.0,2.0,72.0,0.95,2,0.7082646999988356,0.9269052999989071,0,0.45141200000034587,0.6180452999997215,7,0.3335258999995858,0.5170720000005531,,,51.0,51.0,67431,60.0,
-77,-77,0,3,9,57,13,,,,,,,,,,,session,1090.1155916999996,138.0,2.0,72.0,0.95,3,0.43212080000012065,0.6490703999988909,0,1.4783571999996639,1.7285054000003583,7,0.44171060000007856,0.6795108000005712,,,72.0,66.0,67431,60.0,
77,-77,0,3,10,58,9,,,,,,,,,,,session,1099.2219810000006,156.0,2.0,72.0,0.95,4,0.5228901999998925,0.7384803999993892,0,0.30694880000010016,0.5522989000000962,7,0.5144632999999885,0.778094900000724,,,54.0,69.0,67431,60.0,
-77,77,-45,3,11,59,4,,,,,,,,,,,session,1107.4119659000007,138.0,2.0,72.0,0.95,2,0.47668780000094557,0.6961857000005693,7,0.41675020000002405,0.6320266999991873,7,0.5542689000012615,0.7724951000000146,,,60.0,66.0,67431,60.0,
-77,77,-45,3,11,59,4,,,materials/instructions\12_break.png,1115.3941806999992,1124.8353325000007,0,9.305614699998841,9.439029199998913,0.020390000001498265,9.446606299999985,,,,,,,,,,,,,,,,,,,,67431,60.0,
77,-77,-45,3,12,60,8,,,,,,,,,,,session,1124.8508603999999,156.0,2.0,72.0,0.95,4,0.4531105000005482,0.6330558999998175,7,0.3119525000001886,0.47826870000062627,7,0.41914379999980156,0.6014543999990565,,,60.0,63.0,67431,60.0,
77,77,0,3,13,61,1,,,,,,,,,,,session,1133.3323775999997,162.0,2.0,72.0,0.95,5,0.5163424000002124,0.7332384000001184,0,0.3913964000003034,0.5416611000000557,7,0.41687410000122327,0.6004226000004564,,,48.0,63.0,67431,60.0,
77,-77,90,3,14,62,11,,,,,,,,,,,session,1141.1998225999996,180.0,2.0,72.0,0.95,4,0.7475605000017822,0.9810886000013852,6,0.467111300000397,0.6847273000003042,7,0.5158014999997249,0.6871504999999161,,,66.0,48.0,67431,60.0,
77,77,90,3,15,63,3,,,,,,,,,,,session,1149.9152099000003,162.0,2.0,72.0,0.95,5,0.3445698999985325,0.5461460999995325,6,0.34312019999924814,0.47649319999982254,7,0.28360760000032315,0.4501992000004975,,,51.0,51.0,67431,60.0,
-77,77,45,4,0,64,6,,,,,,,,,,,session,1157.3798755000007,138.0,2.0,72.0,0.95,2,0.6143523999999161,0.8152702000006684,1,0.3889309999995021,0.6038282999998046,7,0.30316560000028403,0.5030461000005744,,,66.0,48.0,67431,60.0,
-77,77,90,4,1,65,7,,,,,,,,,,,session,1164.9354932999995,180.0,2.0,72.0,0.95,2,0.37082339999869873,0.571858199999042,6,0.35621699999865086,0.5730158999995183,7,0.5539760000010574,0.7505569000004471,,,54.0,54.0,67431,60.0,
77,77,0,4,2,66,1,,,,,,,,,,,session,1173.0955936999999,144.0,2.0,72.0,0.95,5,0.4675697000002401,0.667563799999698,0,0.7797074000009161,0.9620883999996295,6,2.9560907000013685,3.156242300001395,,,63.0,72.0,67431,60.0,
-77,-77,0,4,3,67,13,,,,,,,,,,,session,1183.9836142999993,150.0,2.0,72.0,0.95,3,0.5715352000006533,0.7560962999996264,0,0.49930489999860583,0.6851816999987932,7,0.2933543999988615,0.49345999999968626,,,51.0,66.0,67431,60.0,
77,-77,0,4,4,68,9,,,,,,,,,,,session,1191.8385562999993,126.0,2.0,72.0,0.95,4,0.6230700999985856,0.7927947999996832,0,0.3935021000015695,0.6279129000013199,7,0.3027770999997301,0.5197064999993017,,,66.0,51.0,67431,60.0,
-77,77,-45,4,5,69,4,,,,,,,,,,,session,1199.8337169999995,162.0,2.0,72.0,0.95,2,0.43193969999992987,0.6340200000013283,7,0.5134103000000323,0.7302976000009949,7,0.26571509999848786,0.5179575999991357,,,57.0,60.0,67431,60.0,
77,77,-45,4,6,70,0,,,,,,,,,,,session,1207.8061149999994,144.0,2.0,72.0,0.95,5,0.2979789000000892,0.5810861000009027,7,0.3502816999989591,0.5692024999989371,7,0.4993704999997135,0.7453173999983846,,,57.0,66.0,67431,60.0,
-77,77,0,4,7,71,5,,,,,,,,,,,session,1215.6118318999997,162.0,2.0,72.0,0.95,2,0.49323139999978594,0.7265705000008893,0,0.5063403000003746,0.756580600000234,7,0.2877852999990864,0.4872315999982675,,,72.0,63.0,67431,60.0,
77,77,45,4,8,72,2,,,,,,,,,,,session,1224.2323558999997,138.0,2.0,72.0,0.95,5,0.3675712000003841,0.6030917000007321,1,0.34670790000018314,0.5628025999994861,7,0.6047702000014397,0.8055130000011559,,,66.0,48.0,67431,60.0,
77,77,90,4,9,73,3,,,,,,,,,,,session,1231.8362500000003,138.0,2.0,72.0,0.95,5,0.36204389999875275,0.5622313000003487,6,0.5944946999989043,0.8276038999993034,7,0.3816555999983393,0.6023444999991625,,,48.0,54.0,67431,60.0,
77,-77,-45,4,10,74,8,,,,,,,,,,,session,1239.2823759999992,180.0,2.0,72.0,0.95,4,0.5076891999997315,0.8453981000002386,7,0.41652629999953206,0.5994745999996667,7,1.0702522999999928,1.2547599999998056,,,54.0,63.0,67431,60.0,
77,-77,90,4,11,75,11,,,,,,,,,,,session,1248.365915800001,156.0,2.0,72.0,0.95,4,0.3372540000000299,0.5381142000005639,6,0.5142926999997144,0.7655249999988882,7,0.19019189999926311,0.42412679999870306,,,66.0,72.0,67431,60.0,
-77,-77,90,4,12,76,15,,,,,,,,,,,session,1256.4215805999993,156.0,2.0,72.0,0.95,3,0.45287589999861666,0.6735529999987193,6,0.5095356999991054,0.776408599998831,6,0.36656719999882625,0.6337832999997772,,,72.0,63.0,67431,60.0,
-77,-77,-45,4,13,77,12,,,,,,,,,,,session,1265.4961616,132.0,2.0,72.0,0.95,3,0.48628459999963525,0.7033697999995638,7,2.134618000000046,2.3347079000013764,7,0.31350100000054226,0.513941999999588,,,54.0,72.0,67431,60.0,
-77,-77,45,4,14,78,14,,,,,,,,,,,session,1274.7877107000004,168.0,2.0,72.0,0.95,3,0.9493019000001368,1.1177798999997322,1,0.4046868000004906,0.6453947000009066,7,0.2805324000000837,0.5013779000000795,,,63.0,54.0,67431,60.0,
77,-77,45,4,15,79,10,,,,,,,,,,,session,1283.2671630000004,150.0,2.0,72.0,0.95,4,0.9156710999995994,1.1001867999984825,1,2.0139251000000513,2.1974000000009255,7,0.604747800000041,0.7712276000002021,,,54.0,48.0,67431,60.0,
77,-77,45,4,15,79,10,,,materials/instructions\12_break.png,1293.010898300001,1309.0779132000007,0,15.898027700000966,16.065041800000472,0.022224899999855552,16.072328399999606,,,,,,,,,,,,,,,,,,,,67431,60.0,
77,77,0,5,0,80,1,,,,,,,,,,,session,1309.0937997,132.0,2.0,72.0,0.95,5,0.442074100001264,0.5245465000007243,0,0.3999031000003015,0.5173424000004161,7,0.6384548999994877,0.7561296999992919,,,72.0,54.0,67431,60.0,
77,77,90,5,1,81,3,,,,,,,,,,,session,1316.6342483000008,150.0,2.0,72.0,0.95,5,0.4813912999998138,0.549645999999484,6,0.4789901000003738,0.5957452999991801,7,0.25999439999941387,0.3604416999987734,,,57.0,69.0,67431,60.0,
77,-77,90,5,2,82,11,,,,,,,,,,,session,1324.2909803000002,168.0,2.0,72.0,0.95,4,0.24301509999895643,0.47471949999999197,6,0.7934103999996296,0.9268339999998716,7,1.93393720000131,2.034047400000418,,,72.0,51.0,67431,60.0,
77,-77,45,5,3,83,10,,,,,,,,,,,session,1334.7471808999999,144.0,2.0,72.0,0.95,4,0.8137067999996361,0.982829499998843,1,0.6445481999999174,0.8122565000012401,7,1.0859049999999115,1.1194011000006867,,,63.0,48.0,67431,60.0,
77,-77,0,5,4,84,9,,,,,,,,,,,session,1343.3548090999993,126.0,2.0,72.0,0.95,4,0.5369958000010229,0.7093278000011196,0,0.6394043000000238,0.8064529999992374,7,0.2851876999993692,0.4664487999998528,,,57.0,60.0,67431,60.0,
-77,77,-45,5,5,85,4,,,,,,,,,,,session,1350.8462448999999,174.0,2.0,72.0,0.95,2,0.8444099999996979,1.0284432000007655,7,0.4502372999995714,0.6003380000001926,7,1.1345225999994,1.2846422999991773,,,63.0,63.0,67431,60.0,
77,-77,-45,5,6,86,8,,,,,,,,,,,session,1360.2001452999993,162.0,2.0,72.0,0.95,4,1.030820699999822,1.2318336999996973,7,0.6133774000008998,0.7467925000000832,7,0.2983473000003869,0.4255314999991242,,,48.0,66.0,67431,60.0,
77,77,45,5,7,87,2,,,,,,,,,,,session,1368.6594069999992,174.0,2.0,72.0,0.95,5,0.592014100000597,0.6749445000004926,1,0.3647471000003861,0.5164130000011937,7,1.0518873000000895,1.188406399998712,,,60.0,66.0,67431,60.0,
-77,-77,-45,5,8,88,12,,,,,,,,,,,session,1378.1347004,144.0,2.0,72.0,0.95,3,0.6097327000006771,0.7596754000005603,7,0.43009130000064033,0.5968384999996488,7,0.5143341000002692,0.6644341999999597,,,69.0,57.0,67431,60.0,
77,77,-45,5,9,89,0,,,,,,,,,,,session,1386.1032168000002,162.0,2.0,72.0,0.95,5,0.7980625000000146,0.9221030999997311,7,0.37536720000025525,0.5254088000001502,7,0.8474700000006123,0.9643353999999817,,,63.0,60.0,67431,60.0,
-77,-77,0,5,10,90,13,,,,,,,,,,,session,1394.7307653999997,180.0,2.0,72.0,0.95,3,0.3439507999992202,0.5121471999991627,0,0.39588129999901867,0.6129263999991963,7,0.5014818999989075,0.6515221999998175,,,69.0,51.0,67431,60.0,
-77,77,0,5,11,91,5,,,,,,,,,,,session,1402.9654494000006,138.0,2.0,72.0,0.95,2,0.2976182999991579,0.481013399999938,0,0.31600319999961357,0.49955640000007406,7,0.2517286000002059,0.41827960000046005,,,66.0,57.0,67431,60.0,
-77,-77,45,5,12,92,14,,,,,,,,,,,session,1410.1558325000005,126.0,2.0,72.0,0.95,3,0.36939600000005157,0.5653125999997428,1,0.3880528999998205,0.5883168000000296,7,0.8711567999998806,1.0880018000007112,,,66.0,69.0,67431,60.0,
-77,77,45,5,13,93,6,,,,,,,,,,,session,1418.4341241000002,156.0,2.0,72.0,0.95,2,0.6297555000001012,0.8131861999991088,1,1.4818414000001212,1.6486189000006561,7,0.31999139999970794,0.5208344000002398,,,48.0,51.0,67431,60.0,
-77,-77,90,5,14,94,15,,,,,,,,,,,session,1427.1188452999995,126.0,2.0,72.0,0.95,3,0.41466290000062145,0.8308452000001125,6,0.41547499999978754,0.6489703999995982,7,0.2874582999993436,0.5317706999994698,,,66.0,69.0,67431,60.0,
-77,77,90,5,15,95,7,,,,,,,,,,,session,1434.9183374999993,180.0,2.0,72.0,0.95,2,0.20185399999900255,0.43612930000017514,6,0.31615989999954763,0.5841789999994944,7,0.25387839999893913,0.5884282999995776,,,60.0,60.0,67431,60.0,
77,-77,45,6,0,96,10,,,,,,,,,,,session,1443.5508750999998,144.0,2.0,72.0,0.95,4,0.4562556000000768,0.6399932000003901,1,0.561959200000274,0.761267100000623,7,0.3340146000009554,0.5504864000013185,,,54.0,66.0,67431,60.0,
-77,-77,90,6,1,97,15,,,,,,,,,,,session,1451.3524192000004,180.0,2.0,72.0,0.95,3,0.3719560999998066,0.6213583999997354,6,0.24115699999856588,0.4864496999998664,7,0.4848072000004322,0.6513952999994217,,,66.0,63.0,67431,60.0,
-77,-77,-45,6,2,98,12,,,,,,,,,,,session,1459.7184015999992,138.0,2.0,72.0,0.95,3,0.49734349999926053,0.9005491999996593,7,0.44637370000054943,0.6466442000000825,7,0.8689377000009699,1.036623600000894,,,72.0,69.0,67431,60.0,
-77,-77,0,6,3,99,13,,,,,,,,,,,session,1468.3999234000003,168.0,2.0,72.0,0.95,3,0.45146869999916817,0.667779999999766,0,0.27893440000116243,0.5437939000003098,7,0.5823977000000014,0.7825580999997328,,,48.0,72.0,67431,60.0,
-77,-77,0,6,3,99,13,,,materials/instructions\12_break.png,1476.6677858000003,1483.7295386999995,0,6.890122799999517,7.059751299999334,0.022354199998517288,7.066841099998783,,,,,,,,,,,,,,,,,,,,67431,60.0,
-77,77,0,6,4,100,5,,,,,,,,,,,session,1483.7452563000006,174.0,2.0,72.0,0.95,2,0.8510027000011178,0.9838325000000623,0,0.44764150000082736,0.6158183999996254,7,0.3177051999991818,0.5009978999987652,,,51.0,57.0,67431,60.0,
77,77,90,6,5,101,3,,,,,,,,,,,session,1491.999783700001,144.0,2.0,72.0,0.95,5,0.3153022999995301,0.4332118000002083,6,0.44549880000158737,0.5953245000000607,7,0.23371969999971043,0.4171741000009206,,,60.0,54.0,67431,60.0,
77,-77,90,6,6,102,11,,,,,,,,,,,session,1499.1903024000003,126.0,2.0,72.0,0.95,4,0.011290200000075856,0.1745293000003585,6,0.1711486000003788,0.3920901000001322,7,0.3984325000001263,0.6146312999990187,,,57.0,54.0,67431,60.0,
77,-77,-45,6,7,103,8,,,,,,,,,,,session,1506.0794889999997,156.0,2.0,72.0,0.95,4,0.8151204999994661,0.982845599999564,7,0.36309389999951236,0.5465014000001247,7,0.3374425000001793,0.5375430999993114,,,66.0,57.0,67431,60.0,
-77,77,90,6,8,104,7,,,,,,,,,,,session,1514.2507626999995,168.0,2.0,72.0,0.95,2,0.16246159999900556,0.379391399999804,6,0.43310270000074524,0.6331093999997393,7,0.5568301000002975,0.771357600000556,,,66.0,51.0,67431,60.0,
-77,77,-45,6,9,105,4,,,,,,,,,,,session,1522.2409198999994,174.0,2.0,72.0,0.95,2,0.40666109999983746,0.6208740000001853,7,0.37862289999975474,0.579016200001206,7,1.0818911000005755,1.2494135000015376,,,63.0,54.0,67431,60.0,
77,-77,0,6,10,106,9,,,,,,,,,,,session,1531.6678116999992,126.0,2.0,72.0,0.95,4,0.24809579999964626,0.4963514999999461,0,0.39843549999932293,0.682141799999954,7,3.305697899999359,3.521709299999202,,,48.0,66.0,67431,60.0,
77,77,-45,6,11,107,0,,,,,,,,,,,session,1541.7891454,150.0,2.0,72.0,0.95,5,0.6439275999982783,0.8441149999998743,7,0.5578709000001254,0.8043244000000414,7,0.7845102999999654,0.9385142999999516,,,72.0,51.0,67431,60.0,
-77,77,45,6,12,108,6,,,,,,,,,,,session,1550.4694741000003,138.0,2.0,72.0,0.95,2,0.6314056999999593,0.8484499999995023,1,0.4796987000008812,0.6964055999997072,7,0.9557267000000138,1.107729899998958,,,57.0,72.0,67431,60.0,
-77,-77,45,6,13,109,14,,,,,,,,,,,session,1559.0368730999999,144.0,2.0,72.0,0.95,3,0.6654863000003388,0.9829284000006737,1,0.29773279999972146,0.5147264000006544,7,0.5056568999989395,0.7058292000001529,,,54.0,66.0,67431,60.0,
77,77,0,6,14,110,1,,,,,,,,,,,session,1567.0744938000007,126.0,2.0,72.0,0.95,5,0.4139136000012513,0.6842307000006258,0,0.3636497999996209,0.5970493000004353,7,0.3497363000005862,0.550053900000421,,,72.0,54.0,67431,60.0,
77,77,45,6,15,111,2,,,,,,,,,,,session,1575.2365659999996,138.0,2.0,72.0,0.95,5,0.43161140000120213,0.6462191000009625,1,0.3805625000004511,0.5805345999997371,7,0.5709535000005417,0.7543531999999686,,,51.0,54.0,67431,60.0,
77,77,-45,7,0,112,0,,,,,,,,,,,session,1582.720473200001,156.0,2.0,72.0,0.95,5,0.48204959999929997,0.6822009000006801,7,0.3333870000005845,0.5352979999988747,7,0.28139089999967837,0.42561250000107975,,,51.0,57.0,67431,60.0,
-77,-77,45,7,1,113,14,,,,,,,,,,,session,1590.195834,138.0,2.0,72.0,0.95,3,0.6944652000001952,1.0955493000001297,1,0.6822850999997172,0.9127490999999281,7,0.2862175999998726,0.5030532000000676,,,66.0,60.0,67431,60.0,
-77,-77,-45,7,2,114,12,,,,,,,,,,,session,1599.065334500001,138.0,2.0,72.0,0.95,3,0.01107870000123512,0.012961700000232668,7,0.4463938999997481,0.6824230999991414,7,0.31948910000028263,0.48724790000051144,,,63.0,66.0,67431,60.0,
-77,77,0,7,3,115,5,,,,,,,,,,,session,1606.1550155000004,138.0,2.0,72.0,0.95,2,0.2667637000013201,0.48448890000145184,0,0.29455589999997756,0.5114424000003055,7,0.5179563999990933,0.7179472999996506,,,60.0,51.0,67431,60.0,
77,77,45,7,4,116,2,,,,,,,,,,,session,1613.4686963000004,162.0,2.0,72.0,0.95,5,1.1102193000006082,1.2239788999995653,1,0.36256649999995716,0.5150250999995478,7,0.2680476000005001,0.4846880000004603,,,72.0,72.0,67431,60.0,
77,77,0,7,5,117,1,,,,,,,,,,,session,1622.4497456999998,174.0,2.0,72.0,0.95,5,0.3648334999998042,0.581601399999272,0,0.9138156000008166,1.147284500000751,7,1.10925380000117,1.2954570000001695,,,69.0,51.0,67431,60.0,
-77,77,45,7,6,118,6,,,,,,,,,,,session,1631.8107294000001,168.0,2.0,72.0,0.95,2,0.3223097999998572,0.5652444000006653,1,0.46396219999951427,0.6649045999984082,7,0.6025802999993175,0.7540033999994193,,,66.0,54.0,67431,60.0,
77,77,90,7,7,119,3,,,,,,,,,,,session,1640.6663415999992,156.0,2.0,72.0,0.95,5,0.29341130000102567,0.49349609999990207,6,0.3200711000008596,0.5501838000000134,7,0.7520344000004116,0.9673256000005495,,,60.0,66.0,67431,60.0,
77,77,90,7,7,119,3,,,materials/instructions\12_break.png,1648.8503308,1660.4473548999995,0,11.361971800000902,11.595026300001336,0.020458499999222113,11.6021157999985,,,,,,,,,,,,,,,,,,,,67431,60.0,
-77,-77,90,7,8,120,15,,,,,,,,,,,session,1660.4632813000007,150.0,2.0,72.0,0.95,3,0.9383909000007407,1.0550755000003846,6,1.015584000000672,1.0823039000006247,6,1.1357948999993823,1.285679299999174,,,57.0,54.0,67431,60.0,
77,-77,45,7,9,121,10,,,,,,,,,,,session,1669.6692313999993,150.0,2.0,72.0,0.95,4,0.46184100000027684,0.5950553000002401,1,1.148589099999299,1.3306000999982643,6,0.3560462000004918,0.48866799999996147,,,48.0,63.0,67431,60.0,
-77,-77,0,7,10,122,13,,,,,,,,,,,session,1677.8922318000004,150.0,2.0,72.0,0.95,3,0.6772449000000051,0.9773975999996765,0,0.9317659000007552,1.1494245000012597,6,0.6327767000002495,0.8157611999995424,,,48.0,72.0,67431,60.0,
77,-77,90,7,11,123,11,,,,,,,,,,,session,1687.3993680999993,156.0,2.0,72.0,0.95,4,0.3163749999985157,0.49937729999874136,6,0.5667991000009351,0.6669055000002118,7,0.2856019999999262,0.4356745000004594,,,63.0,60.0,67431,60.0,
77,-77,0,7,12,124,9,,,,,,,,,,,session,1695.1061957000002,162.0,2.0,72.0,0.95,4,0.2328711000009207,0.4653906999992614,0,0.9375158000002557,1.242703400001119,6,0.49896870000156923,0.6989011000005121,,,54.0,63.0,67431,60.0,
77,-77,-45,7,13,125,8,,,,,,,,,,,session,1703.6157469999998,132.0,2.0,72.0,0.95,4,0.7934523000003537,0.9923154000007344,7,0.44349509999847214,0.5941579999998794,7,0.7207488999993075,0.8554382000002079,,,72.0,54.0,67431,60.0,
-77,77,90,7,14,126,7,,,,,,,,,,,session,1711.8191454000007,156.0,2.0,72.0,0.95,2,0.36213930000121763,0.547529499999655,6,0.2812338000003365,0.44880579999880865,7,0.3192497000000003,0.5194037000001117,,,60.0,63.0,67431,60.0,
-77,77,-45,7,15,127,4,,,,,,,,,,,session,1719.4240886000007,126.0,2.0,72.0,0.95,2,0.29539999999906286,0.49465609999970184,7,0.2621572999996715,0.4420092000000295,7,0.3337750999999116,0.5169158999997308,,,63.0,51.0,67431,60.0,
77,-77,-45,8,0,128,8,,,,,,,,,,,session,1726.6000796000008,162.0,2.0,72.0,0.95,4,0.3896398999986559,0.5896532999995543,7,0.5449694999988424,0.6780135999997583,7,0.7194739000005939,0.9028632000008656,,,66.0,72.0,67431,60.0,
77,77,90,8,1,129,3,,,,,,,,,,,session,1735.2357463999997,144.0,2.0,72.0,0.95,5,0.6830198999996355,0.8490406999990228,6,0.31784999999945285,0.4488543999996182,7,0.011236399999688729,0.1855491999995138,,,51.0,63.0,67431,60.0,
-77,77,90,8,2,130,7,,,,,,,,,,,session,1742.4759396000009,144.0,2.0,72.0,0.95,2,0.011152900000524824,0.21924310000031255,6,0.19784489999983634,0.3977811999993719,7,0.25232320000031905,0.4536889000009978,,,57.0,69.0,67431,60.0,
-77,-77,90,8,3,131,15,,,,,,,,,,,session,1750.2215001000004,168.0,2.0,72.0,0.95,3,0.3587474000014481,0.6426384000005783,6,0.28014120000079856,0.42956190000040806,7,0.28553780000038387,0.4356136999995215,,,60.0,66.0,67431,60.0,
-77,-77,45,8,4,132,14,,,,,,,,,,,session,1758.0864784999994,168.0,2.0,72.0,0.95,3,0.3655560000006517,0.5649310999997397,1,0.3329660999988846,0.5001935999989655,7,0.2863148000014917,0.4358456000009028,,,51.0,54.0,67431,60.0,
-77,-77,-45,8,5,133,12,,,,,,,,,,,session,1765.5756206000005,162.0,2.0,72.0,0.95,3,0.44286600000123144,0.8071565999998711,7,0.3307987000007415,0.4971029999996972,7,0.43143530000088504,0.5956967000001896,,,48.0,57.0,67431,60.0,
-77,77,0,8,6,134,5,,,,,,,,,,,session,1774.0502166999995,168.0,2.0,72.0,0.95,2,0.5790244999989227,0.7629904999994324,0,0.313406399998712,0.49691379999967467,7,0.27158779999990657,0.42157769999903394,,,51.0,60.0,67431,60.0,
77,-77,90,8,7,135,11,,,,,,,,,,,session,1781.8220333000008,126.0,2.0,72.0,0.95,4,0.3338845999987825,0.5506631999996898,6,0.6472664000011719,0.8141133999997692,7,1.0825342999996792,1.2607097999989492,,,54.0,63.0,67431,60.0,
-77,77,-45,8,8,136,4,,,,,,,,,,,session,1789.9317831000008,168.0,2.0,72.0,0.95,2,1.4620844999990368,1.6967162000000826,7,1.2382347000002483,1.3883022999998502,7,0.9204521999999997,1.037251699999615,,,54.0,66.0,67431,60.0,
77,77,45,8,9,137,2,,,,,,,,,,,session,1800.6022694000003,180.0,2.0,72.0,0.95,5,0.8031645999999455,0.90316410000014,1,0.21196430000054534,0.36195130000123754,7,0.24981639999896288,0.33360019999963697,,,57.0,66.0,67431,60.0,
-77,-77,0,8,10,138,13,,,,,,,,,,,session,1808.7254544000007,174.0,2.0,72.0,0.95,3,0.24209179999888875,0.47191819999898144,1,4.333495500000936,4.481617299999925,0,3.924178399998709,4.107539499998893,,,51.0,57.0,67431,60.0,
77,-77,0,8,11,139,9,,,,,,,,,,,session,1824.7050113000005,174.0,2.0,72.0,0.95,4,0.42301210000005085,0.5728863000003912,0,0.2815104000001156,0.3975534000001062,7,0.4194201999998768,0.5529074999994918,,,57.0,57.0,67431,60.0,
77,-77,0,8,11,139,9,,,materials/instructions\12_break.png,1832.5028046999996,1836.2987845999996,0,3.640326600001572,3.793966700000965,0.025223599999662838,3.8013761999991402,,,,,,,,,,,,,,,,,,,,67431,60.0,
77,-77,45,8,12,140,10,,,,,,,,,,,session,1836.3148270000002,126.0,2.0,72.0,0.95,4,0.4469301999997697,0.6155722999992577,1,0.7789087000001018,0.8923266000001604,7,0.2847032000008767,0.3848030999997718,,,54.0,54.0,67431,60.0,
77,77,-45,8,13,141,0,,,,,,,,,,,session,1843.5516086999996,162.0,2.0,72.0,0.95,5,0.383333899999343,0.4833854999997129,7,0.26410560000113037,0.38083650000044145,7,0.221677900000941,0.3383479999993142,,,60.0,48.0,67431,60.0,
-77,77,45,8,14,142,6,,,,,,,,,,,session,1850.7088287999995,156.0,2.0,72.0,0.95,2,0.24803380000048492,0.41437220000079833,1,0.22594949999984237,0.3760595000003377,7,0.09736590000102296,0.24950060000082885,,,48.0,63.0,67431,60.0,
77,77,0,8,15,143,1,,,,,,,,,,,session,1857.6545812999993,150.0,2.0,72.0,0.95,5,0.2148512000003393,0.3841556000006676,0,0.11278369999854476,0.34831149999990885,7,0.2694829000010941,0.45294450000073994,,,66.0,69.0,67431,60.0,
77,-77,45,9,0,144,10,,,,,,,,,,,session,1865.0354965999995,138.0,2.0,72.0,0.95,4,0.40052900000046066,0.5673549999992247,1,0.4598340000011376,0.6432641000010335,7,0.2685848999990412,0.38406489999943005,,,72.0,48.0,67431,60.0,
77,-77,0,9,1,145,9,,,,,,,,,,,session,1872.3727646000007,126.0,2.0,72.0,0.95,4,0.04502979999961099,0.19718029999967257,0,0.267285300000367,0.4365402000003087,7,0.28181240000049,0.3937456999992719,,,54.0,48.0,67431,60.0,
-77,-77,-45,9,2,146,12,,,,,,,,,,,session,1878.649555,138.0,2.0,72.0,0.95,3,0.19019339999977092,0.40682059999926423,7,0.2742534999997588,0.4409422999997332,7,0.03566729999874951,0.22253730000011274,,,72.0,63.0,67431,60.0,
-77,77,45,9,3,147,6,,,,,,,,,,,session,1885.9370175000004,162.0,2.0,72.0,0.95,2,0.279696800000238,0.5136506999988342,1,0.5818312999999762,0.7646512999999686,7,0.27482939999936207,0.40823160000036296,,,72.0,51.0,67431,60.0,
77,-77,-45,9,4,148,8,,,,,,,,,,,session,1893.8064572000003,126.0,2.0,72.0,0.95,4,0.43026149999968766,0.6803687000010541,7,0.011242000000493135,0.12611180000021704,7,0.011424399999668822,0.24661999999989348,,,69.0,63.0,67431,60.0,
-77,-77,0,9,5,149,13,,,,,,,,,,,session,1900.5876724999998,138.0,2.0,72.0,0.95,3,0.3161067999990337,0.48154649999924004,0,0.22920870000052673,0.39770690000113973,7,0.011314800000036485,0.20460779999848455,,,54.0,69.0,67431,60.0,
-77,77,-45,9,6,150,4,,,,,,,,,,,session,1907.6709941000008,162.0,2.0,72.0,0.95,2,0.5487408000008145,0.7319836999995459,7,0.7981717999991815,0.981801899999482,7,0.3731760000009672,0.621205800000098,,,66.0,48.0,67431,60.0,
77,77,45,9,7,151,2,,,,,,,,,,,session,1916.0400929000007,150.0,2.0,72.0,0.95,5,0.28364280000096187,0.4852158000012423,1,0.42673980000108713,0.6712069000004703,7,0.2720754999991186,0.4888534999990952,,,60.0,66.0,67431,60.0,
77,77,0,9,8,152,1,,,,,,,,,,,session,1923.7208164999993,174.0,2.0,72.0,0.95,5,0.3278407999987394,0.544976699999097,0,0.16448710000076971,0.4812653999997565,7,0.3378362000003108,0.5379152000004979,,,72.0,66.0,67431,60.0,
77,77,90,9,9,153,3,,,,,,,,,,,session,1931.937097,126.0,2.0,72.0,0.95,5,0.3017411999990145,0.5008452000001853,6,0.13067960000080348,0.34678080000048794,7,0.42410240000026533,0.6073335000000952,,,66.0,54.0,67431,60.0,
-77,77,0,9,10,154,5,,,,,,,,,,,session,1938.9283883999997,144.0,2.0,72.0,0.95,2,0.2453267999990203,0.446302199999991,0,0.723380300001736,0.9237043000011909,7,1.2530062999994698,1.4543152000005648,,,63.0,51.0,67431,60.0,
-77,-77,45,9,11,155,14,,,,,,,,,,,session,1947.5224990999995,144.0,2.0,72.0,0.95,3,0.2614155999999639,0.5269067999997787,1,0.32916839999961667,0.5656740999984322,7,0.36848209999880055,0.5175045999985741,,,63.0,69.0,67431,60.0,
-77,77,90,9,12,156,7,,,,,,,,,,,session,1955.1888718999999,144.0,2.0,72.0,0.95,2,0.59461630000078,0.7782459000009112,6,0.07891769999878306,0.28073570000015025,7,0.300534099998913,0.48407919999954174,,,66.0,72.0,67431,60.0,
-77,-77,90,9,13,157,15,,,,,,,,,,,session,1962.8767943000003,162.0,2.0,72.0,0.95,3,0.21735719999924186,0.45085349999862956,6,0.26731000000108907,0.49789660000169533,7,0.11446190000060597,0.36442150000038964,,,72.0,66.0,67431,60.0,
77,77,-45,9,14,158,0,,,,,,,,,,,session,1971.1173602,168.0,2.0,72.0,0.95,5,0.3140939000004437,0.4996316000015213,7,0.3128195000008418,0.4963353000002826,7,0.06783529999847815,0.33570749999853433,,,57.0,57.0,67431,60.0,
77,-77,90,9,15,159,11,,,,,,,,,,,session,1978.6044517999999,156.0,2.0,72.0,0.95,4,0.011211699998966651,0.2631031000000803,6,0.2976096999991569,0.5149121999984345,7,0.011219899999559857,0.39067679999971006,,,54.0,72.0,67431,60.0,
77,-77,90,9,15,159,11,,,materials/instructions\12_break.png,1985.9394912999996,2010.734109000001,0,24.64195269999982,24.792444099999557,0.022144700000353623,24.799467700000605,,,,,,,,,,,,,,,,,,,,67431,60.0,
77,-77,-45,10,0,160,8,,,,,,,,,,,session,2010.7496174999997,162.0,2.0,72.0,0.95,4,0.3242965000008553,0.45766920000096434,7,0.1275500000010652,0.2618259000009857,7,0.16616339999927732,0.36634109999977227,,,60.0,72.0,67431,60.0,
-77,77,90,10,1,161,7,,,,,,,,,,,session,2018.5693740000006,138.0,2.0,72.0,0.95,2,0.19843740000032994,0.365104299999075,6,0.011182000000189873,0.21656670000083977,7,0.0112213000011252,0.1183792000010726,,,51.0,63.0,67431,60.0,
-77,-77,0,10,2,162,13,,,,,,,,,,,session,2024.9069096000003,150.0,2.0,72.0,0.95,3,0.1656039999998029,0.38246149999940826,0,0.2814639999996871,0.4481851000000461,7,0.21507480000036594,0.3587096000010206,,,60.0,66.0,67431,60.0,
-77,77,-45,10,3,163,4,,,,,,,,,,,session,2032.1321245,150.0,2.0,72.0,0.95,2,0.3253874000001815,0.5425021999999444,7,1.2592499000002135,1.4768939999994473,6,2.822358699999313,2.987699600000269,,,72.0,51.0,67431,60.0,
77,77,45,10,4,164,2,,,,,,,,,,,session,2043.6894197000001,138.0,2.0,72.0,0.95,5,0.6644189000016922,0.7643760000009934,1,0.48150340000029246,0.666168399999151,7,0.30258820000017295,0.4536793999996007,,,54.0,66.0,67431,60.0,
77,-77,90,10,5,165,11,,,,,,,,,,,session,2051.3109134000006,168.0,2.0,72.0,0.95,4,0.03284519999942859,0.25826620000043476,6,0.2947545999995782,0.476418599999306,7,0.23499620000075083,0.4516024999993533,,,72.0,57.0,67431,60.0,
77,77,90,10,6,166,3,,,,,,,,,,,session,2059.3180568000007,162.0,2.0,72.0,0.95,5,0.26011859999925946,0.44446740000057616,6,0.6117701000002853,0.7952043000004778,7,0.7388675000001967,0.9720309000003908,,,63.0,48.0,67431,60.0,
-77,-77,90,10,7,167,15,,,,,,,,,,,session,2067.5228951999998,150.0,2.0,72.0,0.95,3,0.04659749999882479,0.5666040999985853,6,0.2146645000011631,0.39875800000118033,7,0.011440799999036244,0.17671559999871533,,,51.0,69.0,67431,60.0,
-77,-77,-45,10,8,168,12,,,,,,,,,,,session,2074.5938349000007,168.0,2.0,72.0,0.95,3,0.20652789999985544,0.5065579999991314,7,1.4598850999991555,1.6777845999986312,6,0.1656029000005219,0.4335928000000422,,,63.0,48.0,67431,60.0,
77,77,-45,10,9,169,0,,,,,,,,,,,session,2083.8705924000005,132.0,2.0,72.0,0.95,5,0.31144730000050913,0.5280696999998327,7,0.3835445999993681,0.6169983999989199,7,0.08487460000105784,0.26859020000119926,,,69.0,69.0,67431,60.0,
-77,-77,45,10,10,170,14,,,,,,,,,,,session,2091.1895499,168.0,2.0,72.0,0.95,3,1.1318487000007735,1.3317967000002682,1,0.2654795999987982,0.4155541000000085,7,0.9816545000012411,1.0945939000012004,,,54.0,63.0,67431,60.0,
-77,77,0,10,11,171,5,,,,,,,,,,,session,2100.2351720999995,144.0,2.0,72.0,0.95,2,0.29820070000096166,0.4313681000003271,0,0.21371849999923143,0.39647820000027423,7,0.3003895999991073,0.5181953999999678,,,60.0,57.0,67431,60.0,
-77,77,45,10,12,172,6,,,,,,,,,,,session,2107.5033882999996,180.0,2.0,72.0,0.95,2,1.9320493000013812,2.099662000000535,1,0.5454724000010174,0.7622062999998889,7,0.5520295999995142,0.7021082999999635,,,60.0,69.0,67431,60.0,
77,77,0,10,13,173,1,,,,,,,,,,,session,2117.6614561999995,162.0,2.0,72.0,0.95,5,0.011302599999908125,0.19135429999914777,0,0.2259634999991249,0.4430145000005723,7,0.23847119999845745,0.47178449999955774,,,72.0,69.0,67431,60.0,
77,-77,0,10,14,174,9,,,,,,,,,,,session,2125.7386726999994,132.0,2.0,72.0,0.95,4,0.01101569999991625,0.02709619999950519,6,4.94782160000068,5.198045600000114,6,0.28482830000029935,0.48502299999927345,,,72.0,54.0,67431,60.0,
77,-77,45,10,15,175,10,,,,,,,,,,,session,2137.2089589999996,138.0,2.0,72.0,0.95,4,0.5149559999990743,0.7316969000003155,1,0.5457494000002043,0.7239497999999003,7,0.3349988999998459,0.5353520999997272,,,57.0,60.0,67431,60.0,
-77,77,-45,11,0,176,4,,,,,,,,,,,session,2144.9403506,126.0,2.0,72.0,0.95,2,0.36415069999929983,0.5811035999995511,7,0.42924909999965166,0.6479521999990538,7,0.9766576000001805,1.1267779000008886,,,72.0,54.0,67431,60.0,
77,-77,0,11,1,177,9,,,,,,,,,,,session,2152.9539193,138.0,2.0,72.0,0.95,4,0.3828193999997893,0.699578300000212,0,0.04585380000025907,0.332180999999764,7,0.011225700000068173,0.33786200000031386,,,60.0,66.0,67431,60.0,
77,-77,90,11,2,178,11,,,,,,,,,,,session,2160.164274500001,132.0,2.0,72.0,0.95,4,0.4140659000004234,0.5815464999996038,6,0.357847799999945,0.5362862000001769,7,0.636528900000485,0.8136013999992429,,,51.0,48.0,67431,60.0,
77,77,0,11,3,179,1,,,,,,,,,,,session,2167.4360355999997,138.0,2.0,72.0,0.95,5,0.7441892000006192,0.8768158000002586,0,0.15344940000068163,0.3903410000002623,7,0.3124969999989844,0.4627490000002581,,,72.0,51.0,67431,60.0,
77,77,0,11,3,179,1,,,materials/instructions\12_break.png,2174.9794715000007,2189.5512476000004,0,14.416098800000327,14.569958500000212,0.026121200000488898,14.57752900000014,,,,,,,,,,,,,,,,,,,,67431,60.0,
-77,77,45,11,4,180,6,,,,,,,,,,,session,2189.5676636999997,168.0,2.0,72.0,0.95,2,0.3606880999996065,0.5435981999999058,1,0.3937966999983473,0.5438825999990513,7,0.04868510000051174,0.26674110000021756,,,60.0,60.0,67431,60.0,
77,-77,-45,11,5,181,8,,,,,,,,,,,session,2197.1707726999994,138.0,2.0,72.0,0.95,4,0.649197799999456,0.8994372999986808,7,0.2984277000014117,0.41547500000160653,7,0.6814641000000847,0.815026599999328,,,60.0,57.0,67431,60.0,
-77,-77,0,11,6,182,13,,,,,,,,,,,session,2204.978013600001,174.0,2.0,72.0,0.95,3,0.27621149999868067,0.45446979999906034,0,0.35596819999955187,0.5269510999987688,7,0.23613280000063241,0.4168915999998717,,,54.0,51.0,67431,60.0,
-77,-77,45,11,7,183,14,,,,,,,,,,,session,2212.7540656,156.0,2.0,72.0,0.95,3,0.7777965999994194,1.0305957999989914,1,0.34426600000006147,0.5112558000000718,7,0.011504100000820472,0.1997919000004913,,,48.0,51.0,67431,60.0,
-77,-77,-45,11,8,184,12,,,,,,,,,,,session,2220.205135100001,138.0,2.0,72.0,0.95,3,0.848422600000049,1.3480134000001271,7,0.07383599999957369,0.30925759999990987,7,0.20430060000035155,0.4368551000006846,,,69.0,57.0,67431,60.0,
77,-77,45,11,9,185,10,,,,,,,,,,,session,2228.1445552000005,168.0,2.0,72.0,0.95,4,1.7254472999993595,1.9724475000002712,1,0.27978059999986726,0.44711110000025656,6,0.33649100000002363,0.5365873999999167,,,66.0,72.0,67431,60.0,
77,77,-45,11,10,186,0,,,,,,,,,,,session,2238.2213697999996,156.0,2.0,72.0,0.95,5,0.2600199000007706,0.3609668999997666,7,0.011198599999261205,0.0786855000005744,7,0.011373400000593392,0.06606210000063584,,,57.0,63.0,67431,60.0,
-77,77,90,11,11,187,7,,,,,,,,,,,session,2244.771630700001,144.0,2.0,72.0,0.95,2,0.027871100000993465,0.2627152000004571,6,0.011033700000552926,0.05786369999987073,7,0.2525827000008576,0.4335757000008016,,,60.0,48.0,67431,60.0,
-77,-77,90,11,12,188,15,,,,,,,,,,,session,2251.177430400001,156.0,2.0,72.0,0.95,3,0.09224030000041239,0.30767650000052527,6,0.263000999999349,0.4298192999995081,7,0.011372000000847038,0.1896262000009301,,,51.0,66.0,67431,60.0,
-77,77,0,11,13,189,5,,,,,,,,,,,session,2258.8052800999994,138.0,2.0,72.0,0.95,2,0.11477170000034675,0.3318098999989161,0,0.011289799998849048,0.11565879999943718,7,0.12149890000000596,0.32143100000030245,,,60.0,48.0,67431,60.0,
77,77,90,11,14,190,3,,,,,,,,,,,session,2265.1234793000003,138.0,2.0,72.0,0.95,5,0.3625291999996989,0.5293206999995164,6,0.18266140000014275,0.3326759999999922,7,0.03396770000108518,0.25189599999976053,,,48.0,54.0,67431,60.0,
77,77,45,11,15,191,2,,,,,,,,,,,session,2271.6776738999997,156.0,2.0,72.0,0.95,5,1.077372199999445,1.1653370999993058,1,0.0801132000015059,0.23296540000046662,7,0.011303299999781302,0.01333879999947385,,,63.0,66.0,67431,60.0,
77,-77,0,12,0,192,9,,,,,,,,,,,session,2279.4986222999996,174.0,2.0,72.0,0.95,4,0.1622910000005504,0.33196070000121836,0,0.011216900000363239,0.013317299999471288,7,0.8024521999996068,0.9518306999998458,,,66.0,63.0,67431,60.0,
-77,77,90,12,1,193,7,,,,,,,,,,,session,2287.2896872,168.0,2.0,72.0,0.95,2,0.19725300000027346,0.36499470000126166,6,0.011191099998541176,0.01302419999956328,7,0.15351009999903908,0.32026629999927536,,,72.0,69.0,67431,60.0,
-77,77,-45,12,2,194,4,,,,,,,,,,,session,2294.5959103999994,162.0,2.0,72.0,0.95,2,0.269450700001471,0.4568334000014147,7,0.34371830000054615,0.5440491999997903,7,0.25089420000040263,0.3673921000008704,,,54.0,48.0,67431,60.0,
-77,-77,-45,12,3,195,12,,,,,,,,,,,session,2302.271288,126.0,2.0,72.0,0.95,3,0.3139305999993667,0.4811229999995703,7,0.01129899999978079,0.04365140000118117,7,0.30399529999886,0.45244349999848055,,,66.0,54.0,67431,60.0,
77,-77,45,12,4,196,10,,,,,,,,,,,session,2308.8060306999996,126.0,2.0,72.0,0.95,4,0.09447370000088995,0.2805004000001645,1,0.07883460000084597,0.21425520000047982,7,0.4203391000010015,0.5715122000001429,,,54.0,69.0,67431,60.0,
-77,-77,0,12,5,197,13,,,,,,,,,,,session,2315.4823324999998,180.0,2.0,72.0,0.95,3,0.01129430000037246,0.031928300000799936,0,0.012102900000172667,0.21144420000018727,7,0.011131600000226172,0.21765830000003916,,,60.0,60.0,67431,60.0,
77,-77,90,12,6,198,11,,,,,,,,,,,session,2322.7242687,132.0,2.0,72.0,0.95,4,0.01110069999958796,0.012979900000573252,6,0.4267019999988406,0.5935448999989603,7,0.011644099999102764,0.23697790000005625,,,72.0,57.0,67431,60.0,
-77,-77,45,12,7,199,14,,,,,,,,,,,session,2329.3716547999993,132.0,2.0,72.0,0.95,3,0.2790602000004583,0.4959029000001465,1,0.2776756999992358,0.41116239999973914,7,0.011356700000760611,0.03513259999999718,,,60.0,72.0,67431,60.0,
-77,-77,45,12,7,199,14,,,materials/instructions\12_break.png,2336.1907876000005,2338.3769537000007,0,2.0674409000002925,2.184117900000274,0.020697199999631266,2.1919768000007025,,,,,,,,,,,,,,,,,,,,67431,60.0,
77,77,45,12,8,200,2,,,,,,,,,,,session,2338.3931551000005,174.0,2.0,72.0,0.95,5,0.27355569999963336,0.4237011999994138,1,0.4135525999990932,0.6637024999999994,7,0.584050199999183,0.7178012000003946,,,60.0,57.0,67431,60.0,
-77,-77,90,12,9,201,15,,,,,,,,,,,session,2347.0052904999993,180.0,2.0,72.0,0.95,3,0.011014499999873806,0.07394799999929091,6,0.16250089999994088,0.3636600999998336,7,0.01140040000063891,0.16964089999964926,,,54.0,51.0,67431,60.0,
77,77,90,12,10,202,3,,,,,,,,,,,session,2353.8080255000004,162.0,2.0,72.0,0.95,5,0.011087199998655706,0.2319837999984884,6,0.011082000000897096,0.013204700000642333,7,0.011541299998498289,0.04907169999933103,,,72.0,63.0,67431,60.0,
77,-77,-45,12,11,203,8,,,,,,,,,,,session,2360.4928211999995,132.0,2.0,72.0,0.95,4,0.09467740000036429,0.2931815000010829,7,0.28198909999991884,0.46129350000046543,7,0.03418289999899571,0.25130580000040936,,,57.0,51.0,67431,60.0,
77,77,0,12,12,204,1,,,,,,,,,,,session,2367.2892849,132.0,2.0,72.0,0.95,5,0.011085000000093714,0.14263839999875927,0,0.011138099998788675,0.026409599999169586,7,0.05393960000037623,0.3398668000008911,,,72.0,72.0,67431,60.0,
-77,77,45,12,13,205,6,,,,,,,,,,,session,2373.8567428000006,174.0,2.0,72.0,0.95,2,0.011246599999140017,0.13619959999959974,1,0.11444870000013907,0.33149389999925916,6,0.011225099999137456,0.013188099999752012,,,57.0,66.0,67431,60.0,
-77,77,0,12,14,206,5,,,,,,,,,,,session,2380.7227119,174.0,2.0,72.0,0.95,2,0.012128000000302563,0.18587529999967956,0,0.01114179999967746,0.11927019999893673,7,0.011382099999536877,0.18490530000053695,,,60.0,60.0,67431,60.0,
77,77,-45,12,15,207,0,,,,,,,,,,,session,2387.5747197,174.0,2.0,72.0,0.95,5,0.011029100000087055,0.012937699999383767,7,0.311437800000931,0.5297912999994878,7,0.31824779999988095,0.5016730999996071,,,54.0,51.0,67431,60.0,
77,-77,0,13,0,208,9,,,,,,,,,,,session,2394.7547534000005,126.0,2.0,72.0,0.95,4,0.011208199999600765,0.01308959999914805,0,0.011100900001110858,0.049912500000573345,7,0.01126539999859233,0.06630919999952312,,,66.0,69.0,67431,60.0,
-77,-77,-45,13,1,209,12,,,,,,,,,,,session,2400.6742183000006,150.0,2.0,72.0,0.95,3,0.011106200001449906,0.01291020000098797,7,1.2977588000012474,1.4647051000010833,6,0.1501514000010502,0.3222163000009459,,,54.0,51.0,67431,60.0,
-77,-77,45,13,2,210,14,,,,,,,,,,,session,2408.1750312000004,138.0,2.0,72.0,0.95,3,0.011320300000079442,0.013346400000955327,1,0.2319576000008965,0.41519940000034694,7,0.011259700000664452,0.11890549999952782,,,48.0,66.0,67431,60.0,
-77,77,0,13,3,211,5,,,,,,,,,,,session,2414.7917142999995,180.0,2.0,72.0,0.95,2,0.01111960000162071,0.01301670000066224,0,0.2944227000007231,0.4281670000000304,7,0.011129000000437372,0.06962010000097507,,,51.0,66.0,67431,60.0,
-77,-77,90,13,4,212,15,,,,,,,,,,,session,2421.7068658000007,180.0,2.0,72.0,0.95,3,0.011312099999486236,0.21376429999872926,6,0.3201305999991746,0.5036569999992935,7,0.2933601999993698,0.46015369999986433,,,48.0,48.0,67431,60.0,
77,77,-45,13,5,213,0,,,,,,,,,,,session,2428.9174955,174.0,2.0,72.0,0.95,5,0.6178823999998713,0.7393898999998783,7,0.5737644000000728,0.7401580000005197,7,0.011187300000528921,0.1860166999995272,,,63.0,63.0,67431,60.0,
-77,77,45,13,6,214,6,,,,,,,,,,,session,2437.6920025,144.0,2.0,72.0,0.95,2,0.011300599999231054,0.013174399999115849,1,0.11161920000085956,0.3624080999998114,7,0.011181600000782055,0.17004350000024715,,,57.0,51.0,67431,60.0,
-77,-77,0,13,7,215,13,,,,,,,,,,,session,2443.8756637999995,132.0,2.0,72.0,0.95,3,0.011165099998834194,0.013002699999560718,0,0.16350649999913003,0.38136320000012347,7,0.10158140000021376,0.31987110000045504,,,63.0,54.0,67431,60.0,
77,-77,90,13,8,216,11,,,,,,,,,,,session,2450.1814397,168.0,2.0,72.0,0.95,4,0.01095290000012028,0.012849300001107622,6,0.3951593999991019,0.6618424999996932,7,0.011220700000194483,0.0334911000009015,,,54.0,66.0,67431,60.0,
77,77,45,13,9,217,2,,,,,,,,,,,session,2457.8363532999992,132.0,2.0,72.0,0.95,5,0.011534799999935785,0.013407700000243494,1,0.710155400000076,0.8451492999993206,7,0.037222799999653944,0.20660490000045684,,,69.0,51.0,67431,60.0,
77,-77,-45,13,10,218,8,,,,,,,,,,,session,2464.5423169999995,126.0,2.0,72.0,0.95,4,0.4343204999986483,0.5510593999988487,7,0.011138300000311574,0.01305800000045565,7,0.03203600000051665,0.15033930000026885,,,69.0,57.0,67431,60.0,
-77,77,-45,13,11,219,4,,,,,,,,,,,session,2470.8961634999996,156.0,2.0,72.0,0.95,2,0.011229700001422316,0.01311359999999695,7,0.8785868999984814,1.0122202999991714,7,0.8698715000009543,0.951519800000824,,,57.0,60.0,67431,60.0,
-77,77,-45,13,11,219,4,,,materials/instructions\12_break.png,2479.2025202000004,2484.0210411000007,0,4.665905399999247,4.8164176999998745,0.020976300000256742,4.823579500000051,,,,,,,,,,,,,,,,,,,,67431,60.0,
77,-77,45,13,12,220,10,,,,,,,,,,,session,2484.0362805999994,168.0,2.0,72.0,0.95,4,0.15527900000051886,0.2887084000012692,1,0.0624459000009665,0.23077660000126343,7,0.569762000000992,0.7378743000008399,,,69.0,51.0,67431,60.0,
-77,77,90,13,13,221,7,,,,,,,,,,,session,2491.5483115999996,168.0,2.0,72.0,0.95,2,0.03914760000043316,0.20806160000029195,6,0.12904929999967862,0.3266137000009621,6,0.04936380000071949,0.33182460000170977,,,54.0,51.0,67431,60.0,
77,77,90,13,14,222,3,,,,,,,,,,,session,2498.4716389999994,180.0,2.0,72.0,0.95,5,0.09062660000017786,0.21012070000142558,6,0.011237100001380895,0.01310870000088471,6,0.012258099999598926,0.014128400000117836,,,66.0,66.0,67431,60.0,
77,77,0,13,15,223,1,,,,,,,,,,,session,2505.3861048,144.0,2.0,72.0,0.95,5,0.3859152000004542,0.5191795999999158,0,0.028841699999247794,0.21206230000098003,6,0.011338600001181476,0.1527674000008119,,,51.0,54.0,67431,60.0,
-77,-77,45,14,0,224,14,,,,,,,,,,,session,2511.8436679000006,150.0,2.0,72.0,0.95,3,0.011247399999774643,0.06401809999988473,1,0.10747120000087307,0.275775900001463,7,0.01149500000065018,0.07341790000100445,,,57.0,63.0,67431,60.0,
77,-77,0,14,1,225,9,,,,,,,,,,,session,2518.215231100001,168.0,2.0,72.0,0.95,4,0.01126990000011574,0.013115200001266203,0,0.011385400001017842,0.013242200000604498,6,0.011205400000108057,0.01309180000134802,,,63.0,66.0,67431,60.0,
77,77,-45,14,2,226,0,,,,,,,,,,,session,2525.1812558,132.0,2.0,72.0,0.95,5,0.01129419999961101,0.013177599999835365,7,0.8843089999991207,1.0024178000003303,6,0.011293800000203191,0.013219799999205861,,,66.0,69.0,67431,60.0,
-77,77,45,14,3,227,6,,,,,,,,,,,session,2532.108114299999,138.0,2.0,72.0,0.95,2,0.515130699999645,0.6153500000000349,1,0.011082099999839556,0.11537119999957213,6,0.20322739999937767,0.33728289999999106,,,66.0,48.0,67431,60.0,
77,-77,-45,14,4,228,8,,,,,,,,,,,session,2538.8146204000004,150.0,2.0,72.0,0.95,4,0.011195799999768496,0.012993000000278698,7,0.06282099999953061,0.1986930000002758,6,0.05166009999993548,0.21805859999949462,,,72.0,66.0,67431,60.0,
-77,-77,0,14,5,229,13,,,,,,,,,,,session,2546.0886589,180.0,2.0,72.0,0.95,3,0.14630380000016885,0.3297672999997303,0,0.011151900000186288,0.043401799999628565,7,0.011369500000000698,0.03384689999984403,,,63.0,63.0,67431,60.0,
77,77,90,14,6,230,3,,,,,,,,,,,session,2553.0558763999998,162.0,2.0,72.0,0.95,5,0.01112950000060664,0.013002900001083617,6,0.31133950000003097,0.47961660000146367,6,0.7264006999994308,0.8588199999994686,,,51.0,63.0,67431,60.0,
77,-77,45,14,7,231,10,,,,,,,,,,,session,2560.4480306000005,156.0,2.0,72.0,0.95,4,0.011386700000002747,0.01324420000128157,1,0.26474469999993744,0.46447900000021036,7,0.05008590000034019,0.267165200000818,,,48.0,60.0,67431,60.0,
-77,-77,90,14,8,232,15,,,,,,,,,,,session,2567.6564973999994,132.0,2.0,72.0,0.95,3,0.011150000000270666,0.013026099999478902,6,0.3289609000003111,0.4637918999997055,6,0.09956940000120085,0.2835501999998087,,,51.0,54.0,67431,60.0,
77,-77,90,14,9,233,11,,,,,,,,,,,session,2573.8071982,150.0,2.0,72.0,0.95,4,0.011350000000675209,0.013257800001156284,6,0.3282538999992539,0.4615645999983826,7,0.011550399998668581,0.035185699998692144,,,48.0,66.0,67431,60.0,
77,77,0,14,10,234,1,,,,,,,,,,,session,2580.160057700001,156.0,2.0,72.0,0.95,5,0.36119930000131717,0.5295851000009861,0,0.011692300000504474,0.10156979999919713,6,0.01220130000001518,0.014100399999733781,,,57.0,69.0,67431,60.0,
-77,-77,-45,14,11,235,12,,,,,,,,,,,session,2587.116307100001,168.0,2.0,72.0,0.95,3,0.01118759999917529,0.013049600000158534,7,0.25686989999849175,0.35685709999961546,7,0.08264880000024277,0.270158100000117,,,63.0,54.0,67431,60.0,
-77,77,0,14,12,236,5,,,,,,,,,,,session,2593.9443269999992,180.0,2.0,72.0,0.95,2,0.011355399999956717,0.1682450999996945,0,0.011183399999936228,0.09789920000002894,7,0.011589600000661449,0.013486899999406887,,,60.0,66.0,67431,60.0,
77,77,45,14,13,237,2,,,,,,,,,,,session,2600.7720056,162.0,2.0,72.0,0.95,5,0.011647600000287639,0.11647819999961939,1,0.011181700001543504,0.0839179000013246,7,0.011301099999400321,0.04933960000016668,,,60.0,60.0,67431,60.0,
-77,77,90,14,14,238,7,,,,,,,,,,,session,2607.1885870999995,162.0,2.0,72.0,0.95,2,0.01206350000029488,0.013848399999915273,6,0.2572560999997222,0.40746479999870644,7,0.011283499999990454,0.01324659999954747,,,54.0,72.0,67431,60.0,
-77,77,-45,14,15,239,4,,,,,,,,,,,session,2614.2517207,138.0,2.0,72.0,0.95,2,0.011137499999676947,0.013030699999944773,7,0.0110740000000078,0.21146129999942787,7,0.011203100000784616,0.013055900000836118,,,69.0,72.0,67431,60.0,
-77,77,-45,14,15,239,4,,,materials/instructions\12_break.png,2620.6030188000004,2627.6792411999995,0,6.9074624000004405,7.074032600001374,0.024955300001238356,7.081868100000065,,,,,,,,,,,,,,,,,,,,67431,60.0,
77,77,45,15,0,240,2,,,,,,,,,,,session,2627.6944805000003,156.0,2.0,72.0,0.95,5,0.011085100000855164,0.013023500001509092,1,0.011106599999038735,0.01296820000061416,7,0.011219699999855948,0.013117000000420376,,,51.0,69.0,67431,60.0,
-77,77,-45,15,1,241,4,,,,,,,,,,,session,2634.3500095,162.0,2.0,72.0,0.95,2,0.011162999999214662,0.012985199999093311,7,0.0112650000010035,0.013182900000174413,7,0.012703099999271217,0.014565999999831547,,,69.0,48.0,67431,60.0,
77,-77,90,15,2,242,11,,,,,,,,,,,session,2640.4878651,180.0,2.0,72.0,0.95,4,0.0645076999990124,0.2649507000005542,6,0.011336599998685415,0.013248199998997734,7,0.01111750000018219,0.013024200001382269,,,72.0,48.0,67431,60.0,
-77,-77,90,15,3,243,15,,,,,,,,,,,session,2647.2241527000006,150.0,2.0,72.0,0.95,3,0.011260900000706897,0.013198900000134017,6,0.011463799999546609,0.013954599999124184,7,0.011408300000766758,0.013305500000569737,,,72.0,63.0,67431,60.0,
-77,-77,-45,15,4,244,12,,,,,,,,,,,session,2653.8000033999997,168.0,2.0,72.0,0.95,3,1.126437499999156,1.2607515999989118,7,0.011040700001103687,0.04193920000034268,7,0.20061689999965893,0.33399159999862604,,,69.0,51.0,67431,60.0,
77,77,-45,15,5,245,0,,,,,,,,,,,session,2661.691480199999,156.0,2.0,72.0,0.95,5,0.011141000000861823,0.013066400000752765,7,0.2984398999997211,0.4486238000008598,7,0.011792899998908979,0.013692200000150478,,,48.0,66.0,67431,60.0,
77,-77,0,15,6,246,9,,,,,,,,,,,session,2668.1056412,168.0,2.0,72.0,0.95,4,0.01103299999886076,0.012937299999975949,0,0.14090140000007523,0.3432610999989265,7,0.2658843999997771,0.44929339999907825,,,48.0,54.0,67431,60.0,
77,-77,-45,15,7,247,8,,,,,,,,,,,session,2674.9062457,126.0,2.0,72.0,0.95,4,0.011588800000026822,0.013479400000505848,7,0.11190549999992072,0.2652673999982653,7,0.01190850000057253,0.20565549999992072,,,48.0,48.0,67431,60.0,
-77,-77,0,15,8,248,13,,,,,,,,,,,session,2680.5404046999993,138.0,2.0,72.0,0.95,3,0.011319100000036997,0.01327330000094662,0,0.011118600001282175,0.013014000000111992,7,0.011241700000027777,0.013327500000741566,,,57.0,66.0,67431,60.0,
77,-77,45,15,9,249,10,,,,,,,,,,,session,2686.3737588999993,144.0,2.0,72.0,0.95,4,0.011282299999948009,0.013216800000009243,1,0.3307175999998435,0.49623719999908644,7,0.011228100000153063,0.012974499999472755,,,63.0,57.0,67431,60.0,
-77,77,45,15,10,250,6,,,,,,,,,,,session,2692.7429420000008,168.0,2.0,72.0,0.95,2,0.011393099999622791,0.01328769999963697,1,0.23085850000097707,0.39644090000001597,7,0.012316700000155834,0.06724279999980354,,,54.0,51.0,67431,60.0,
-77,-77,45,15,11,251,14,,,,,,,,,,,session,2699.9220313000005,168.0,2.0,72.0,0.95,3,0.011185800000021118,0.09556309999970836,1,0.011709600001267972,0.013602099999843631,7,0.011143600000650622,0.013191600000936887,,,72.0,69.0,67431,60.0,
77,77,0,15,12,252,1,,,,,,,,,,,session,2706.6537381,174.0,2.0,72.0,0.95,5,0.01106419999996433,0.012967099999514176,0,0.011145200000100886,0.01310610000109591,7,0.13497930000085034,0.25372520000018994,,,72.0,48.0,67431,60.0,
-77,77,90,15,13,253,7,,,,,,,,,,,session,2713.2840737000006,132.0,2.0,72.0,0.95,2,0.011329799999657553,0.0131933000011486,6,0.2073804999999993,0.40260829999897396,7,0.01113930000065011,0.013073400001303526,,,48.0,63.0,67431,60.0,
-77,77,0,15,14,254,5,,,,,,,,,,,session,2719.299240099999,156.0,2.0,72.0,0.95,2,0.011222299999644747,0.013123500000801869,0,0.011268500000369386,0.013378600000578444,7,0.011280099999567028,0.013169500000003609,,,60.0,51.0,67431,60.0,
77,77,90,15,15,255,3,,,,,,,,,,,session,2725.2683350999996,144.0,2.0,72.0,0.95,5,0.011254099999860046,0.013123799999448238,6,0.011031500000171945,0.012917800000650459,7,0.01117549999980838,0.01328280000052473,,,69.0,48.0,67431,60.0,
-77,77,-45,16,0,256,4,,,,,,,,,,,session,2731.106266999999,162.0,2.0,72.0,0.95,2,0.2216653999985283,0.422052399999302,7,0.011062100000344799,0.01293230000010226,7,0.01117549999980838,0.013277000000016415,,,69.0,72.0,67431,60.0,
77,77,0,16,1,257,1,,,,,,,,,,,session,2738.1292907999996,156.0,2.0,72.0,0.95,5,0.03703959999984363,0.22570149999955902,0,0.011268800000834744,0.01316210000004503,7,0.011227599999983795,0.013139999999111751,,,66.0,69.0,67431,60.0,
-77,77,45,16,2,258,6,,,,,,,,,,,session,2745.233073900001,168.0,2.0,72.0,0.95,2,0.05965680000008433,0.2786820000001171,1,0.011269099999481114,0.013124400000378955,7,0.012075900000127149,0.013936400000602589,,,69.0,54.0,67431,60.0,
77,-77,-45,16,3,259,8,,,,,,,,,,,session,2751.8350546,126.0,2.0,72.0,0.95,4,0.011392600001272513,0.013831300000674673,7,0.22438770000007935,0.407956800001557,7,0.011326199999530218,0.013356699999349075,,,60.0,54.0,67431,60.0,
77,-77,-45,16,3,259,8,,,materials/instructions\12_break.png,2757.7416262000006,2761.2739340000007,0,3.3893915000007837,3.5301548000006733,0.024324300000444055,3.5470186000002286,,,,,,,,,,,,,,,,,,,,67431,60.0,
77,77,90,16,4,260,3,,,,,,,,,,,session,2761.2992302000002,174.0,2.0,72.0,0.95,5,0.011519499999849359,0.013630299999931594,6,0.011618599999565049,0.013510099999621161,7,2.7679157000002306,2.9044589000004635,,,72.0,63.0,67431,60.0,
77,-77,0,16,5,261,9,,,,,,,,,,,session,2771.3623977999996,156.0,2.0,72.0,0.95,4,0.011024299999917275,0.08922060000077181,0,0.18557140000120853,0.35035680000146385,7,0.0111151000000973,0.013037900000199443,,,48.0,69.0,67431,60.0,
-77,-77,0,16,6,262,13,,,,,,,,,,,session,2777.8035891,126.0,2.0,72.0,0.95,3,0.011220899999898393,0.11913710000044375,0,0.011123199999929057,0.012988700000278186,7,0.07035449999966659,0.27958829999988666,,,69.0,54.0,67431,60.0,
-77,77,0,16,7,263,5,,,,,,,,,,,session,2783.8443645000007,138.0,2.0,72.0,0.95,2,0.011927100000320934,0.2235940999999002,0,0.07058710000092105,0.2372365000010177,7,0.011326399999234127,0.013215599999966798,,,48.0,60.0,67431,60.0,
-77,77,90,16,8,264,7,,,,,,,,,,,session,2790.2396857999993,150.0,2.0,72.0,0.95,2,0.011222200000702287,0.07853310000064084,6,0.011327399999572663,0.013200900000811089,7,0.2869866999990336,0.38694890000078885,,,66.0,57.0,67431,60.0,
-77,-77,90,16,9,265,15,,,,,,,,,,,session,2796.7134232999997,132.0,2.0,72.0,0.95,3,0.011324300001433585,0.16512780000084604,6,0.011046999999962281,0.01310639999974228,7,0.06433350000042992,0.19981129999905534,,,72.0,63.0,67431,60.0,
77,-77,90,16,10,266,11,,,,,,,,,,,session,2802.9832453,162.0,2.0,72.0,0.95,4,0.010997800000041025,0.012871300001279451,6,0.32628550000117684,0.4090455000005022,7,0.2846403999992617,0.4011494999995193,,,54.0,54.0,67431,60.0,
77,77,-45,16,11,267,0,,,,,,,,,,,session,2810.3415152,138.0,2.0,72.0,0.95,5,0.11228210000081162,0.19396710000000894,7,0.07556599999952596,0.19416300000011688,7,0.011274100001173792,0.013174600000638748,,,60.0,69.0,67431,60.0,
-77,-77,-45,16,12,268,12,,,,,,,,,,,session,2816.6368996,162.0,2.0,72.0,0.95,3,0.49570610000046145,0.6622153000007529,7,0.7799248999999691,0.8806857999989006,7,0.2362751999989996,0.3362548000004608,,,57.0,54.0,67431,60.0,
-77,-77,45,16,13,269,14,,,,,,,,,,,session,2824.5162880999997,162.0,2.0,72.0,0.95,3,0.011676699999952689,0.013539699999455479,1,0.01122639999994135,0.013152600000466919,7,0.011334999999235151,0.013237900000603986,,,51.0,48.0,67431,60.0,
77,-77,45,16,14,270,10,,,,,,,,,,,session,2830.803551000001,126.0,2.0,72.0,0.95,4,0.01112479999937932,0.012989499999093823,1,0.9449012999994011,1.077389399999447,7,0.011206299999685143,0.13825050000014016,,,72.0,54.0,67431,60.0,
77,77,45,16,15,271,2,,,,,,,,,,,session,2837.6762753000003,156.0,2.0,72.0,0.95,5,0.14793039999858593,0.26462249999894993,1,0.32792109999900276,0.47827499999948486,7,0.066334300001472,0.20163630000024568,,,72.0,60.0,67431,60.0,
-77,77,90,17,0,272,7,,,,,,,,,,,session,2844.8651582,156.0,2.0,72.0,0.95,2,0.26428430000123626,0.41438750000088476,6,0.011176699999850825,0.013059700000667362,7,0.011402599999200902,0.013312900000528316,,,69.0,57.0,67431,60.0,
-77,-77,45,17,1,273,14,,,,,,,,,,,session,2851.469919700001,162.0,2.0,72.0,0.95,3,0.011122600000817329,0.012986499999897205,1,0.21290489999955753,0.39769429999978456,7,0.011505599999509286,0.09947380000085104,,,63.0,69.0,67431,60.0,
-77,77,-45,17,2,274,4,,,,,,,,,,,session,2858.4569054000003,156.0,2.0,72.0,0.95,2,0.24204719999943336,0.4088437000009435,7,0.011151099999551661,0.14834139999948093,7,0.011227099999814527,0.1387417000005371,,,60.0,54.0,67431,60.0,
-77,77,45,17,3,275,6,,,,,,,,,,,session,2865.0961076999993,180.0,2.0,72.0,0.95,2,1.5345290999994177,1.7354309000002104,7,0.011494500000480912,0.09676450000006298,1,3.70180099999925,3.850353499999983,,,51.0,69.0,67431,60.0,
77,-77,45,17,4,276,10,,,,,,,,,,,session,2877.243527299999,126.0,2.0,72.0,0.95,4,0.5967632000010781,0.8141675000006217,1,0.2833553000000393,0.43348560000049474,6,0.22038810000049125,0.3864826000008179,,,66.0,48.0,67431,60.0,
77,77,90,17,5,277,3,,,,,,,,,,,session,2884.3276979,138.0,2.0,72.0,0.95,5,0.011721699998815893,0.032344899998861365,6,0.5276945000005071,0.6752140999997209,7,0.011574000000109663,0.17166550000001735,,,66.0,48.0,67431,60.0,
77,77,-45,17,6,278,0,,,,,,,,,,,session,2890.8487162,162.0,2.0,72.0,0.95,5,0.011271800000031362,0.013012700001127087,7,0.685895900000105,0.8192796000003,7,0.27008330000171554,0.3878221000013582,,,69.0,60.0,67431,60.0,
-77,77,0,17,7,279,5,,,,,,,,,,,session,2898.9090247000004,126.0,2.0,72.0,0.95,2,0.01118999999926018,0.013108999999531079,0,0.01119490000019141,0.11411210000005667,7,0.012168700000984245,0.18772110000099929,,,63.0,51.0,67431,60.0,
-77,77,0,17,7,279,5,,,materials/instructions\12_break.png,2904.7024906999995,2926.060969100001,0,21.237377300001754,21.35621320000064,0.025493200000710203,21.3617505000002,,,,,,,,,,,,,,,,,,,,67431,60.0,
77,-77,0,17,8,280,9,,,,,,,,,,,session,2926.074799600001,132.0,2.0,72.0,0.95,4,0.012814800000342075,0.015102999999726308,0,0.36595370000031835,0.48276310000073863,7,0.01178269999945769,0.013644499998918036,,,60.0,72.0,67431,60.0,
-77,-77,90,17,9,281,15,,,,,,,,,,,session,2932.4237558000004,126.0,2.0,72.0,0.95,3,0.012253900000359863,0.0141444999990199,6,0.011556999999811524,0.013414200000624987,7,0.011607700000240584,0.013470600000800914,,,66.0,69.0,67431,60.0,
77,-77,90,17,10,282,11,,,,,,,,,,,session,2938.4096191999997,162.0,2.0,72.0,0.95,4,0.14333350000015344,0.2789042000003974,6,0.011046600000554463,0.012920799999847077,7,0.011271399998804554,0.013166099999580183,,,63.0,72.0,67431,60.0,
-77,-77,-45,17,11,283,12,,,,,,,,,,,session,2945.5398406000004,162.0,2.0,72.0,0.95,3,0.496611299999131,0.6133754999991652,7,0.011131100000056904,0.013023000001339824,7,0.6357177999998385,0.7537042999992991,,,69.0,51.0,67431,60.0,
77,77,0,17,12,284,1,,,,,,,,,,,session,2953.0645392999995,168.0,2.0,72.0,0.95,5,0.01148050000119838,0.0136118999998871,0,0.012385800000629388,0.01426050000009127,7,0.012741799999275827,0.014933799999198527,,,72.0,66.0,67431,60.0,
-77,-77,0,17,13,285,13,,,,,,,,,,,session,2959.6915298000004,174.0,2.0,72.0,0.95,3,0.2051225000013801,0.38779539999995905,0,0.31515740000031656,0.4477868000012677,7,0.1087705999998434,0.3089629000005516,,,57.0,48.0,67431,60.0,
77,77,45,17,14,286,2,,,,,,,,,,,session,2967.5470926,144.0,2.0,72.0,0.95,5,0.011569099999178434,0.013481699999829289,1,0.011106899999504094,0.1304385999992519,7,0.012410400000590016,0.16636530000141647,,,48.0,51.0,67431,60.0,
77,-77,-45,17,15,287,8,,,,,,,,,,,session,2973.3624022000004,156.0,2.0,72.0,0.95,4,0.011192100000698701,0.013044700001046294,7,0.011142699999254546,0.01294190000044182,7,0.01175630000034289,0.013651900000695605,,,60.0,66.0,67431,60.0,
-77,77,45,18,0,288,6,,,,,,,,,,,session,2979.5279099,126.0,2.0,72.0,0.95,2,0.20294909999938682,0.35308400000030815,1,0.8927007999991474,1.0123903999992763,7,0.011571199998797965,0.013431299999865587,,,48.0,66.0,67431,60.0,
-77,77,0,18,1,289,5,,,,,,,,,,,session,2986.702513,138.0,2.0,72.0,0.95,2,0.011330899998938548,0.013229099999080063,0,0.011043099999369588,0.01294199999938428,7,0.011389100000087637,0.013282199999594013,,,60.0,54.0,67431,60.0,
-77,-77,-45,18,2,290,12,,,,,,,,,,,session,2992.3867042,132.0,2.0,72.0,0.95,3,0.11662729999989097,0.28369910000037635,7,0.011136600000099861,0.11411109999971814,7,0.011411899999075104,0.013296600000103354,,,48.0,63.0,67431,60.0,
-77,77,-45,18,3,291,4,,,,,,,,,,,session,2998.2912269999997,144.0,2.0,72.0,0.95,2,0.3517487000008259,0.5017016000001604,7,0.011109699998996803,0.012961799999175128,7,0.011631800000031944,0.013508699999874807,,,66.0,66.0,67431,60.0,
77,-77,45,18,4,292,10,,,,,,,,,,,session,3004.8598402999996,174.0,2.0,72.0,0.95,4,0.36053110000102606,0.5270932000003086,1,0.011433400000896654,0.14786050000111572,7,0.011034999999537831,0.012917800000650459,,,51.0,66.0,67431,60.0,
-77,-77,45,18,5,293,14,,,,,,,,,,,session,3012.2457183000006,168.0,2.0,72.0,0.95,3,0.01119490000019141,0.013069500000710832,1,0.5157108999992488,0.6134027999996761,7,0.20167310000033467,0.30172660000062024,,,69.0,57.0,67431,60.0,
77,77,45,18,6,294,2,,,,,,,,,,,session,3019.5149622999998,144.0,2.0,72.0,0.95,5,0.011124499998913961,0.013003699999899254,1,1.147612200000367,1.2476808999999776,6,0.08734410000033677,0.21307949999936682,,,72.0,57.0,67431,60.0,
77,-77,90,18,7,295,11,,,,,,,,,,,session,3026.9958659999993,150.0,2.0,72.0,0.95,4,0.11185830000067654,0.1950847000007343,6,0.011132800000268617,0.14987880000080622,7,0.011520300000483985,0.117622300000221,,,57.0,51.0,67431,60.0,
-77,77,90,18,8,296,7,,,,,,,,,,,session,3033.560021200001,174.0,2.0,72.0,0.95,2,0.11270450000120036,0.1805002000000968,6,0.011160500000187312,0.01307230000020354,6,0.13425370000004477,0.30433909999919706,,,63.0,51.0,67431,60.0,
77,77,-45,18,9,297,0,,,,,,,,,,,session,3040.2985976,126.0,2.0,72.0,0.95,5,0.44528639999953157,0.5124502999988181,7,0.263339499999347,0.41075459999956365,7,0.10874500000136322,0.25894980000157375,,,54.0,51.0,67431,60.0,
77,-77,0,18,10,298,9,,,,,,,,,,,session,3046.769037100001,138.0,2.0,72.0,0.95,4,0.011131799999930081,0.012976699999853736,0,0.012057500000082655,0.013922099999035709,7,0.011522900000272784,0.013367300000027171,,,54.0,72.0,67431,60.0,
77,77,90,18,11,299,3,,,,,,,,,,,session,3053.3360238000005,150.0,2.0,72.0,0.95,5,0.01110780000090017,0.013039800000115065,6,0.011039099999834434,0.012913200000184588,7,0.24075359999915236,0.4241562999995949,,,69.0,66.0,67431,60.0,
77,77,90,18,11,299,3,,,materials/instructions\12_break.png,3060.0187773,3065.0291204000005,0,4.8915185000005295,5.008181700000932,0.010836399998879642,5.015997599999537,,,,,,,,,,,,,,,,,,,,67431,60.0,
-77,-77,0,18,12,300,13,,,,,,,,,,,session,3065.044489,162.0,2.0,72.0,0.95,3,0.012047599999277736,0.013988799999424373,0,0.011082200000601006,0.012989500000912813,7,0.011201100000107544,0.013121900001351605,,,48.0,60.0,67431,60.0,
-77,-77,90,18,13,301,15,,,,,,,,,,,session,3071.1920422000003,144.0,2.0,72.0,0.95,3,0.01087089999964519,0.012769499999194522,6,0.011360700000295765,0.013265600000522682,7,0.011290500000541215,0.013168199999199715,,,66.0,69.0,67431,60.0,
77,-77,-45,18,14,302,8,,,,,,,,,,,session,3077.7570321000003,144.0,2.0,72.0,0.95,4,0.01120209999862709,0.01311580000037793,7,0.16317920000074082,0.345761800001128,7,0.011229499999899417,0.18369600000005448,,,48.0,48.0,67431,60.0,
77,77,0,18,15,303,1,,,,,,,,,,,session,3083.7473520999993,162.0,2.0,72.0,0.95,5,0.011295700000118813,0.013346600000659237,0,0.011195600000064587,0.01305539999884786,7,0.011155899999721441,0.013066699999399134,,,57.0,48.0,67431,60.0,
77,77,90,19,0,304,3,,,,,,,,,,,session,3089.6785342999992,162.0,2.0,72.0,0.95,5,0.011293100000330014,0.013146299999789335,6,0.011494200000015553,0.013386399999944842,7,0.01124809999964782,0.013103100000080303,,,48.0,69.0,67431,60.0,
77,-77,45,19,1,305,10,,,,,,,,,,,session,3096.3548106,162.0,2.0,72.0,0.95,4,1.279329200000575,1.3793502999997145,1,0.011239999999816064,0.013378499999816995,6,0.011250100000324892,0.013098199999149074,,,63.0,57.0,67431,60.0,
-77,77,-45,19,2,306,4,,,,,,,,,,,session,3103.9092108999994,156.0,2.0,72.0,0.95,2,0.5175509000000602,0.6025212999993528,7,0.011406100000385777,0.013356299999941257,7,0.011072699999203905,0.012990799999897717,,,66.0,69.0,67431,60.0,
-77,-77,0,19,3,307,13,,,,,,,,,,,session,3110.8274758000007,144.0,2.0,72.0,0.95,3,0.011389399998734007,0.013255799998660223,0,0.011275000000750879,0.013116400001308648,7,2.13531200000034,0.011165600000822451,,,60.0,66.0,67431,60.0,
-77,-77,-45,19,4,308,12,,,,,,,,,,,session,3118.999946600001,156.0,2.0,72.0,0.95,3,0.27533409999887226,0.4575955000000249,7,0.011241999998674146,0.013162899998860667,7,0.3335693999997602,0.534516400000939,,,66.0,48.0,67431,60.0,
77,-77,0,19,5,309,9,,,,,,,,,,,session,3125.9792935000005,156.0,2.0,72.0,0.95,4,0.1968590000014956,0.32957530000021507,0,0.011517299999468378,0.1294285999993008,7,0.012229699999807053,0.08404979999977513,,,48.0,51.0,67431,60.0,
77,77,0,19,6,310,1,,,,,,,,,,,session,3132.2150965,168.0,2.0,72.0,0.95,5,0.011300199999823235,0.013245199999801116,0,0.012105899999369285,0.014037499999176362,7,0.011171500000273227,0.013110399999277433,,,51.0,60.0,67431,60.0,
-77,-77,90,19,7,311,15,,,,,,,,,,,session,3138.372145200001,150.0,2.0,72.0,0.95,3,0.24717579999924055,0.5656401999985974,6,0.011026399999536807,0.012931799999932991,7,0.011578499999814085,0.013468499999362393,,,54.0,51.0,67431,60.0,
77,-77,90,19,8,312,11,,,,,,,,,,,session,3144.8084634000006,162.0,2.0,72.0,0.95,4,0.011127899999337387,0.11385969999901135,6,0.011072600000261446,0.23074040000028617,7,0.120517800000016,0.4037722000011854,,,60.0,51.0,67431,60.0,
-77,77,90,19,9,313,7,,,,,,,,,,,session,3151.5477644000002,162.0,2.0,72.0,0.95,2,0.010980900000504334,0.10954139999921608,6,0.9499567999991996,1.1186168999993242,1,0.05430470000101195,0.2718778000016755,,,51.0,54.0,67431,60.0,
-77,-77,45,19,10,314,14,,,,,,,,,,,session,3158.936125100001,156.0,2.0,72.0,0.95,3,0.011075399999754154,0.012958200000866782,1,0.2317907999986346,0.44840409999960684,7,0.011340799999743467,0.02991949999886856,,,51.0,60.0,67431,60.0,
-77,77,0,19,11,315,5,,,,,,,,,,,session,3165.8426660000005,174.0,2.0,72.0,0.95,2,0.011084900001151254,0.012953299999935552,0,0.011168099999849801,0.013049199998931726,7,0.011201700001038262,0.013112600001477404,,,60.0,66.0,67431,60.0,
-77,77,45,19,12,316,6,,,,,,,,,,,session,3172.3242050999997,126.0,2.0,72.0,0.95,2,0.011105099998530932,0.014576499999748194,1,0.012021799999274663,0.07613709999895946,7,0.012239099998623715,0.014080799999646842,,,54.0,69.0,67431,60.0,
77,77,-45,19,13,317,0,,,,,,,,,,,session,3178.0314225,144.0,2.0,72.0,0.95,5,0.011234600000534556,0.013162500001271837,7,0.011227999999391614,0.01312330000109796,7,0.012053200000082143,0.013927300000432297,,,60.0,48.0,67431,60.0,
77,77,45,19,14,318,2,,,,,,,,,,,session,3184.0192960999993,162.0,2.0,72.0,0.95,5,0.5128858999996737,0.6296447999993688,1,0.02766210000118008,0.22864269999990938,7,0.011690299999827403,0.034783600000082515,,,51.0,60.0,67431,60.0,
77,-77,-45,19,15,319,8,,,,,,,,,,,session,3190.9092418,168.0,2.0,72.0,0.95,4,0.011237500000788714,0.16462420000061684,7,0.012245899999470566,0.11096580000048561,7,0.01146840000001248,0.013303199999427306,,,51.0,60.0,67431,60.0,
77,-77,-45,19,15,319,8,,,materials/instructions\12_break.png,3197.3101112000004,3199.2644731,0,1.8021514000010939,1.9522374000007403,0.02393639999900188,1.9600131999995938,,,,,,,,,,,,,,,,,,,,67431,60.0,
-77,77,45,20,0,320,6,,,,,,,,,,,session,3199.2799037999994,144.0,2.0,72.0,0.95,2,0.010891899999478483,0.012759999999616412,1,0.011445699999967474,0.08917180000025837,7,0.011438100000304985,0.1156448999990971,,,63.0,57.0,67431,60.0,
77,-77,-45,20,1,321,8,,,,,,,,,,,session,3205.4642031000003,168.0,2.0,72.0,0.95,4,0.011261100000410806,0.013134400000126334,7,0.5221697000015411,0.6539776000008715,7,0.011222699999052566,0.013207300000431133,,,72.0,69.0,67431,60.0,
77,77,0,20,2,322,1,,,,,,,,,,,session,3212.7735577999993,126.0,2.0,72.0,0.95,5,0.011743499999283813,0.013606599999548052,0,0.011096199999883538,0.012994099999559694,7,0.011584100000618491,0.01346929999999702,,,57.0,60.0,67431,60.0,
-77,77,-45,20,3,323,4,,,,,,,,,,,session,3218.3090021000007,162.0,2.0,72.0,0.95,2,0.28150600000117265,0.46805940000012924,7,0.011246699999901466,0.013110100000631064,7,0.011479300001155934,0.013380200000028708,,,72.0,69.0,67431,60.0,
77,-77,0,20,4,324,9,,,,,,,,,,,session,3225.376105200001,150.0,2.0,72.0,0.95,4,0.10890409999956319,0.40941620000012335,0,0.011270599999988917,0.013174499999877298,7,0.011253799999394687,0.013174699999581208,,,72.0,63.0,67431,60.0,
-77,77,90,20,5,325,7,,,,,,,,,,,session,3232.5054758999995,168.0,2.0,72.0,0.95,2,0.012366300001303898,0.2651638000006642,6,0.01111259999925096,0.013009899999815389,7,0.01120949999858567,0.0131015999995725,,,60.0,69.0,67431,60.0,
77,-77,45,20,6,326,10,,,,,,,,,,,session,3239.192906,150.0,2.0,72.0,0.95,4,0.026400400000056834,0.32890169999882346,1,0.011100700001406949,0.0130023000001529,7,0.011127499999929569,0.013061699999525445,,,63.0,63.0,67431,60.0,
-77,-77,-45,20,7,327,12,,,,,,,,,,,session,3245.6155701000007,150.0,2.0,72.0,0.95,3,0.011955100000704988,0.013679200001206482,7,0.011828599999716971,0.013651400000526337,7,0.011150100001032115,0.03505059999952209,,,69.0,48.0,67431,60.0,
-77,-77,0,20,8,328,13,,,,,,,,,,,session,3252.1401186000003,138.0,2.0,72.0,0.95,3,0.011564700000235462,0.013441999999486143,0,0.011428899999373243,0.01332170000023325,6,0.0112143999995169,0.013142699999662,,,48.0,66.0,67431,60.0,
77,-77,90,20,9,329,11,,,,,,,,,,,session,3257.823123,162.0,2.0,72.0,0.95,4,0.011220899999898393,0.013049600000158534,6,0.02591530000063358,0.2778859999998531,7,0.3055745999990904,0.6057697999985976,,,51.0,63.0,67431,60.0,
77,77,-45,20,10,330,0,,,,,,,,,,,session,3264.7695618,174.0,2.0,72.0,0.95,5,0.011208600000827573,0.01310390000071493,7,0.011132999999972526,0.013051400001131697,7,0.01131820000045991,0.013185600000724662,,,54.0,72.0,67431,60.0,
77,77,45,20,11,331,2,,,,,,,,,,,session,3271.2741759,162.0,2.0,72.0,0.95,5,0.011129900000014459,0.013009199999942211,1,0.011019499999747495,0.012919099999635364,7,0.011078300000008312,0.013207799998781411,,,54.0,54.0,67431,60.0,
-77,77,0,20,12,332,5,,,,,,,,,,,session,3277.3653405000005,132.0,2.0,72.0,0.95,2,0.2794138999997813,0.5129080999995494,0,0.011357999999745516,0.013198900000134017,7,0.011395499999707681,0.013251099999251892,,,60.0,66.0,67431,60.0,
-77,-77,45,20,13,333,14,,,,,,,,,,,session,3283.6390223,168.0,2.0,72.0,0.95,3,0.1829349000017828,0.3986266000010801,1,0.011140599999635015,0.013008899999476853,7,0.011170599998877151,0.01307999999880849,,,60.0,72.0,67431,60.0,
-77,-77,90,20,14,334,15,,,,,,,,,,,session,3290.5127119999997,126.0,2.0,72.0,0.95,3,0.01116829999955371,0.1121662000005017,6,0.011141400000269641,0.01303629999893019,7,0.011163700000906829,0.013057000000117114,,,63.0,54.0,67431,60.0,
77,77,90,20,15,335,3,,,,,,,,,,,session,3296.8035999999993,168.0,2.0,72.0,0.95,5,0.04668359999959648,0.2672781000001123,6,0.011303199999019853,0.20475900000019465,7,0.01142960000106541,0.013367999999900348,,,60.0,63.0,67431,60.0,
77,-77,0,21,0,336,9,,,,,,,,,,,session,3303.5737792,156.0,2.0,72.0,0.95,4,0.011166899999807356,0.04814820000137843,0,0.011077400000431226,0.012967599999683443,7,0.011227899998630164,0.013140600000042468,,,69.0,69.0,67431,60.0,
-77,-77,90,21,1,337,15,,,,,,,,,,,session,3310.0122730000003,156.0,2.0,72.0,0.95,3,0.011224500000025728,0.013090800001009484,6,0.011315300000205752,0.013294799999130191,7,0.011203000000023167,0.01309430000037537,,,69.0,54.0,67431,60.0,
-77,-77,-45,21,2,338,12,,,,,,,,,,,session,3316.3779049000004,132.0,2.0,72.0,0.95,3,0.011603599999943981,0.01347660000101314,7,0.012313999999605585,0.03491530000064813,7,0.011082999999416643,0.01287880000018049,,,48.0,54.0,67431,60.0,
-77,77,90,21,3,339,7,,,,,,,,,,,session,3321.771080300001,174.0,2.0,72.0,0.95,2,0.011293300000033923,0.013199199998780387,6,0.011105999999927008,0.013001200000871904,7,0.011160300000483403,0.13134379999974044,,,69.0,48.0,67431,60.0,
-77,77,90,21,3,339,7,,,materials/instructions\12_break.png,3328.2537348999995,3330.1810281,0,1.7589847999988706,1.9256337999995594,0.01346689999991213,1.933498899999904,,,,,,,,,,,,,,,,,,,,67431,60.0,
77,77,0,21,4,340,1,,,,,,,,,,,session,3330.197072499999,150.0,2.0,72.0,0.95,5,0.01114410000081989,0.013061499999821535,0,0.011168000000907341,0.013063500000498607,7,0.01139320000038424,0.0132104000003892,,,48.0,54.0,67431,60.0,
77,77,90,21,5,341,3,,,,,,,,,,,session,3335.9105089999994,144.0,2.0,72.0,0.95,5,0.011191899999175803,0.013123699998686789,6,0.011210300001039286,0.013080700000500656,7,0.012059699998644646,0.013951699998870026,,,48.0,48.0,67431,60.0,
77,77,-45,21,6,342,0,,,,,,,,,,,session,3341.8714388000008,138.0,2.0,72.0,0.95,5,0.01159439999901224,0.01348379999944882,7,0.18177510000168695,0.5135865000011108,7,0.01224270000057004,0.01414650000151596,,,51.0,72.0,67431,60.0,
-77,-77,45,21,7,343,14,,,,,,,,,,,session,3348.2098843000003,150.0,2.0,72.0,0.95,3,0.011087099999713246,0.012999099999433383,1,0.011824900000647176,0.013687299999219249,7,0.011535800000274321,0.013434399999823654,,,51.0,57.0,67431,60.0,
77,-77,90,21,8,344,11,,,,,,,,,,,session,3354.0154225999995,156.0,2.0,72.0,0.95,4,0.011051199999201344,0.012940299999172566,6,0.011091799999121577,0.013067300000329851,7,0.011055200000555487,0.01293210000039835,,,57.0,63.0,67431,60.0,
-77,-77,0,21,9,345,13,,,,,,,,,,,session,3360.275271300001,156.0,2.0,72.0,0.95,3,0.01107640000009269,0.012959400000909227,0,0.012277899999389774,0.01420730000063486,7,0.012167000000772532,0.014280999999755295,,,66.0,63.0,67431,60.0,
77,77,45,21,10,346,2,,,,,,,,,,,session,3366.5253601000004,180.0,2.0,72.0,0.95,5,0.029678799999601324,0.19818790000135778,1,0.011272099998677731,0.1584155999989889,7,0.011326700001518475,0.013278300000820309,,,48.0,72.0,67431,60.0,
77,-77,45,21,11,347,10,,,,,,,,,,,session,3373.3422680000003,138.0,2.0,72.0,0.95,4,0.1646452999993926,0.3645381999995152,1,0.20501820000026783,0.4210246000002371,7,0.011800899999798276,0.1950061999996251,,,69.0,66.0,67431,60.0,
-77,77,0,21,12,348,5,,,,,,,,,,,session,3380.325545400001,150.0,2.0,72.0,0.95,2,0.011253399999986868,0.013071100000161096,0,0.01147080000009737,0.013384100000621402,7,0.011268000000200118,0.013162400000510388,,,72.0,48.0,67431,60.0,
77,-77,-45,21,13,349,8,,,,,,,,,,,session,3386.6106407999996,138.0,2.0,72.0,0.95,4,0.011169600000357605,0.03465330000108224,7,0.011268300000665477,0.01313300000037998,6,0.032424500001070555,0.25011280000035185,,,60.0,66.0,67431,60.0,
-77,77,45,21,14,350,6,,,,,,,,,,,session,3392.7647030000007,126.0,2.0,72.0,0.95,4,3.315847699999722,3.5503241999995225,6,1.3778801999997086,1.550688799999989,0,0.3160715000012715,0.5820203000002948,,,72.0,48.0,67431,60.0,
-77,77,-45,21,15,351,4,,,,,,,,,,,session,3403.9989616000003,180.0,2.0,72.0,0.95,2,0.6128666999993584,0.7954406999997445,7,0.011453499999333872,0.1623301999989053,7,0.012303299999985029,0.05105610000100569,,,54.0,72.0,67431,60.0,
-77,77,-45,22,0,352,4,,,,,,,,,,,session,3411.611043500001,168.0,2.0,72.0,0.95,2,0.2608614000000671,0.47773640000013984,7,0.011109499999292893,0.23227909999877738,7,0.01134989999991376,0.25267729999904986,,,63.0,63.0,67431,60.0,
-77,77,90,22,1,353,7,,,,,,,,,,,session,3418.8992946,150.0,2.0,72.0,0.95,2,0.01124340000023949,0.11152539999966393,6,0.011176500000146916,0.1924845000012283,6,0.011133900001368602,0.12755680000009306,,,51.0,69.0,67431,60.0,
-77,-77,90,22,2,354,15,,,,,,,,,,,session,3425.3147028999992,144.0,2.0,72.0,0.95,3,0.0110765999997966,0.013114299999870127,6,0.06320939999932307,0.3158726999990904,7,0.011444499999925029,0.01330950000010489,,,54.0,72.0,67431,60.0,
77,77,45,22,3,355,2,,,,,,,,,,,session,3431.8667962,174.0,2.0,72.0,0.95,5,0.011219999998502317,0.07995320000009087,1,0.011143800000354531,0.013078699999823584,7,0.011239499999646796,0.013170099999115337,,,69.0,48.0,67431,60.0,
-77,77,45,22,4,356,6,,,,,,,,,,,session,3438.2611338000006,132.0,2.0,72.0,0.95,2,0.29323110000041197,0.49249650000092515,1,0.011607999998886953,0.24964819999877363,7,0.2202741999990394,0.4201632999993308,,,48.0,57.0,67431,60.0,
77,-77,0,22,5,357,9,,,,,,,,,,,session,3444.8248170000006,174.0,2.0,72.0,0.95,4,0.010959200000797864,0.012770200000886689,0,0.011059199998271652,0.012921699999424163,7,0.011212300001716358,0.013191400001232978,,,66.0,72.0,67431,60.0,
-77,-77,-45,22,6,358,12,,,,,,,,,,,session,3452.136998600001,156.0,2.0,72.0,0.95,3,0.011808799999926123,0.20035350000034668,7,0.011366999999154359,0.013245999998616753,7,0.0120176000000356,0.013820599999235128,,,57.0,57.0,67431,60.0,
77,-77,-45,22,7,359,8,,,,,,,,,,,session,3458.3076457000006,156.0,2.0,72.0,0.95,4,0.08039900000039779,0.3149542000010115,7,0.01114410000081989,0.013015099999392987,7,0.011293300000033923,0.013167699999030447,,,72.0,72.0,67431,60.0,
77,-77,-45,22,7,359,8,,,materials/instructions\12_break.png,3465.1131860999994,3493.494571200001,0,28.275738199999978,28.37951630000134,0.02501779999874998,28.387116899999455,,,,,,,,,,,,,,,,,,,,67431,60.0,
77,77,-45,22,8,360,0,,,,,,,,,,,session,3493.5108082999996,174.0,2.0,72.0,0.95,5,0.010933100000329432,0.012843200000133947,7,0.24535160000050382,0.31360290000156965,7,0.06758819999959087,0.15279939999891212,,,57.0,57.0,67431,60.0,
-77,77,0,22,9,361,5,,,,,,,,,,,session,3500.2477476999993,162.0,2.0,72.0,0.95,2,0.011173700000654208,0.01304349999918486,0,0.011108500000773347,0.01292240000111633,7,0.011230899999645771,0.013131300000168267,,,54.0,66.0,67431,60.0,
77,77,90,22,10,362,3,,,,,,,,,,,session,3506.4323975000007,126.0,2.0,72.0,0.95,5,0.011461699999927077,0.013330199999472825,6,0.011176899999554735,0.013094699999783188,7,0.011083999999755179,0.012963799999852199,,,66.0,69.0,67431,60.0,
77,77,0,22,11,363,1,,,,,,,,,,,session,3512.2606498000005,126.0,2.0,72.0,0.95,5,0.05865059999996447,0.11103969999930996,0,1.348237500000323,1.430638199999521,6,0.5199814000006882,0.5866628000003402,,,57.0,69.0,67431,60.0,
77,-77,90,22,12,364,11,,,,,,,,,,,session,3520.6336226000003,138.0,2.0,72.0,0.95,4,0.011182199999893783,0.013344000000870437,6,0.011155800000778981,0.013046399999439018,7,0.011292900000626105,0.013192100001106155,,,66.0,60.0,67431,60.0,
