x,y,orientation,.thisRepN,.thisTrialN,.thisN,.thisIndex,.stepSize,.intensity,image_name,global_start_time,global_end_time,pressKey,pressRT,releaseRT,image_started,image_ended,name,globalTime,fixation_dur,stimulation_dur,post_fixation,opacity,locationResponse_pressKey,locationResponse_pressRT,locationResponse_releaseRT,orientationResponse_pressKey,orientationResponse_pressRT,orientationResponse_releaseRT,pasResponse_pressKey,pasResponse_pressRT,pasResponse_releaseRT,.response,finalOpacity,postLoc,postOri,ID,frameRate,
,,,0,-1,-1,0,0.0969100130080564,None,materials/instructions\1_welcome.png,2.7313035000115633,32.12011979997624,0,29.1527118999511,29.38672939990647,0.07281879999209195,29.388476000051014,,,,,,,,,,,,,,,,,,,,67809,64.0,
,,,0,-1,-1,0,0.0969100130080564,None,materials/instructions\2_instruction.png,32.17369249998592,54.83667989994865,0,22.427620699978434,22.661127500003204,0.014700200059451163,22.669123900006525,,,,,,,,,,,,,,,,,,,,67809,64.0,
,,,0,-1,-1,0,0.0969100130080564,None,materials/instructions\3_location_demo.png,54.893436299986206,66.44559829996433,0,11.239229399943724,11.55018299992662,0.012396799982525408,11.558237200020812,,,,,,,,,,,,,,,,,,,,67809,64.0,
,,,0,-1,-1,0,0.0969100130080564,None,materials/instructions\4_orientation_demo.png,66.50108680000994,87.25155150005594,0,20.443850599927828,20.74863279995043,0.01319209998473525,20.754006800008938,,,,,,,,,,,,,,,,,,,,67809,64.0,
,,,0,-1,-1,0,0.0969100130080564,None,materials/instructions\5_pas_demo.png,87.31072439998388,100.58773739996832,0,12.84132739994675,13.274977599969134,0.019811699981801212,13.28301619994454,,,,,,,,,,,,,,,,,,,,67809,64.0,
-152,152,-45,0,-1,-1,0,0.0969100130080564,None,,,,,,,,,session,100.60391539998818,173.0,2.0,77.0,1.0,2,5.7946717999875546,6.084110499941744,0,5.645890700048767,6.050424100016244,0,2.983313399949111,3.283136500045657,,,,,67809,64.0,
152,152,90,0,-1,-1,0,0.0969100130080564,None,,,,,,,,,session,120.62579800002277,192.0,2.0,77.0,1.0,5,1.5259916000068188,1.892757400055416,6,2.055235299980268,2.3722317999927327,6,2.9799289000220597,3.244499000022188,,,,,67809,64.0,
152,152,45,0,-1,-1,0,0.0969100130080564,None,,,,,,,,,session,133.11732830002438,154.0,2.0,77.0,1.0,5,1.1097584000090137,1.5074908999959007,7,1.416518099955283,1.734293199959211,6,2.0927886000135913,2.4267177999718115,,,,,67809,64.0,
152,152,0,0,-1,-1,0,0.0969100130080564,None,,,,,,,,,session,142.92494599998463,192.0,2.0,77.0,1.0,5,1.043337699957192,1.4100811999524012,0,1.4316429999889806,1.7599658999824896,6,1.7897474000928923,2.1593071999959648,,,,,67809,64.0,
152,152,-45,0,-1,-1,0,0.0969100130080564,None,,,,,,,,,session,153.15103479998652,134.0,2.0,77.0,1.0,5,1.2546700000530109,1.654252600041218,1,1.7613911000080407,2.110712300054729,1,3.0331577999750152,3.3668126000557095,,,,,67809,64.0,
,,,0,-1,-1,0,0.0969100130080564,None,materials/instructions\10_staircase_start.png,164.12043290003203,184.78586509998422,0,20.364265399985015,20.66357340000104,0.019123299978673458,20.671934599988163,,,,,,,,,,,,,,,,,,,,67809,64.0,
,,,0,0,-1,0,0.0969100130080564,0.4,,,,,,,,,staircase,184.801044599968,192.0,2.0,77.0,0.4,,,,1,1.9234385000308976,2.2089162999764085,,,,1,,,,67809,64.0,
,,,0,1,-1,0,0.0969100130080564,0.32,,,,,,,,,staircase,191.92878359998576,186.0,2.0,77.0,0.32,,,,7,1.3251433999976143,1.6745527000166476,,,,0,,,,67809,64.0,
,,,0,2,-1,0,0.0969100130080564,0.4,,,,,,,,,staircase,198.3480292999884,134.0,2.0,77.0,0.4,,,,0,0.7371736998902634,1.0735414999071509,,,,1,,,,67809,64.0,
,,,0,3,-1,0,0.0969100130080564,0.32,,,,,,,,,staircase,203.05501200002618,154.0,2.0,77.0,0.32,,,,1,1.776535200071521,2.0832771999994293,,,,1,,,,67809,64.0,
,,,0,4,-1,0,0.0969100130080564,0.256,,,,,,,,,staircase,209.32971089996863,173.0,2.0,77.0,0.256,,,,0,0.44878560001961887,0.7619788000592962,,,,1,,,,67809,64.0,
,,,0,5,-1,0,0.0969100130080564,0.2048,,,,,,,,,staircase,214.59672360005789,186.0,2.0,77.0,0.2048,,,,0,0.6832519000163302,0.9999100000131875,,,,1,,,,67809,64.0,
,,,0,6,-1,0,0.0969100130080564,0.16384,,,,,,,,,staircase,220.33214650000446,186.0,2.0,77.0,0.16384,,,,1,0.8521193000487983,1.16345720004756,,,,1,,,,67809,64.0,
,,,0,7,-1,0,0.0969100130080564,0.13107200000000002,,,,,,,,,staircase,226.07004300004337,179.0,2.0,77.0,0.13107200000000002,,,,1,1.2354459000052884,1.5356859000166878,,,,1,,,,67809,64.0,
,,,0,8,-1,0,0.0969100130080564,0.10485760000000002,,,,,,,,,staircase,232.20829830004368,141.0,2.0,77.0,0.10485760000000002,,,,0,0.4941686999518424,0.9448557000141591,,,,1,,,,67809,64.0,
,,,0,9,-1,0,0.0969100130080564,0.08388608000000002,,,,,,,,,staircase,237.1132519999519,173.0,2.0,77.0,0.08388608000000002,,,,0,0.7958194999955595,1.175026800017804,,,,1,,,,67809,64.0,
,,,0,10,-1,0,0.0969100130080564,0.06710886400000002,,,,,,,,,staircase,242.83259620005265,192.0,2.0,77.0,0.06710886400000002,,,,0,0.3491883999668062,0.6878536000149325,,,,1,,,,67809,64.0,
,,,0,11,-1,0,0.0969100130080564,0.053687091200000016,,,,,,,,,staircase,248.19189569994342,141.0,2.0,77.0,0.053687091200000016,,,,0,0.3611181000014767,0.6781505999388173,,,,1,,,,67809,64.0,
,,,0,12,-1,0,0.0969100130080564,0.04294967296000001,,,,,,,,,staircase,252.85716230003163,147.0,2.0,77.0,0.04294967296000001,,,,0,0.32814600004348904,0.7633462999947369,,,,1,,,,67809,64.0,
,,,0,13,-1,0,0.0969100130080564,0.034359738368000006,,,,,,,,,staircase,257.662273199996,186.0,2.0,77.0,0.034359738368000006,,,,0,2.533110500080511,3.014248499996029,,,,1,,,,67809,64.0,
,,,0,14,-1,0,0.0969100130080564,0.027487790694400004,,,,,,,,,staircase,265.40257260005455,160.0,2.0,77.0,0.027487790694400004,,,,1,3.124772400013171,3.463412000099197,,,,0,,,,67809,64.0,
,,,0,15,-1,0,0.0969100130080564,0.034359738368000006,,,,,,,,,staircase,272.9431241999846,173.0,2.0,77.0,0.034359738368000006,,,,7,1.626562500023283,1.9374905999284238,,,,1,,,,67809,64.0,
,,,0,16,-1,0,0.0969100130080564,0.027487790694400004,,,,,,,,,staircase,279.4433097000001,147.0,2.0,77.0,0.027487790694400004,,,,7,2.194763300009072,2.445226600044407,,,,1,,,,67809,64.0,
,,,0,17,-1,0,0.0969100130080564,0.021990232555520003,,,,,,,,,staircase,285.8323011000175,160.0,2.0,77.0,0.021990232555520003,,,,1,2.182620899984613,2.516729600029066,,,,0,,,,67809,64.0,
,,,0,18,-1,0,0.0969100130080564,0.027487790694400004,,,,,,,,,staircase,292.5207043000264,173.0,2.0,77.0,0.027487790694400004,,,,6,1.2542545000324026,1.5540244999574497,,,,1,,,,67809,64.0,
,,,0,19,-1,0,0.0969100130080564,0.021990232555520003,,,,,,,,,staircase,298.6246650000103,166.0,2.0,77.0,0.021990232555520003,,,,1,1.8092876999871805,2.159801899921149,,,,0,,,,67809,64.0,
,,,0,20,-1,0,0.0969100130080564,0.027487790694400004,,,,,,,,,staircase,305.1967737999512,147.0,2.0,77.0,0.027487790694400004,,,,0,1.1264917000662535,1.608135599992238,,,,1,,,,67809,64.0,
,,,0,21,-1,0,0.0969100130080564,0.021990232555520003,,,,,,,,,staircase,310.76555350003764,154.0,2.0,77.0,0.021990232555520003,,,,0,1.1695559000363573,1.5523546999320388,,,,1,,,,67809,64.0,
,,,0,22,-1,0,0.0969100130080564,0.017592186044416,,,,,,,,,staircase,316.3563352000201,166.0,2.0,77.0,0.017592186044416,,,,1,2.1725564000662416,2.722370400093496,,,,0,,,,67809,64.0,
,,,0,23,-1,0,0.0969100130080564,0.021990232555520003,,,,,,,,,staircase,323.4620333999628,186.0,2.0,77.0,0.021990232555520003,,,,6,2.0772475000703707,2.679047100013122,,,,1,,,,67809,64.0,
,,,0,24,-1,0,0.0969100130080564,0.017592186044416,,,,,,,,,staircase,330.9013456000248,134.0,2.0,77.0,0.017592186044416,,,,0,2.163352300063707,2.512882300070487,,,,1,,,,67809,64.0,
,,,0,25,-1,0,0.0969100130080564,0.014073748835532801,,,,,,,,,staircase,337.13657500001136,166.0,2.0,77.0,0.014073748835532801,,,,7,2.5197338999714702,2.8297916000010446,,,,0,,,,67809,64.0,
,,,0,26,-1,0,0.0969100130080564,0.017592186044416,,,,,,,,,staircase,344.25914970005397,186.0,2.0,77.0,0.017592186044416,,,,1,2.0454496999736875,2.4647830999456346,,,,0,,,,67809,64.0,
,,,0,27,-1,0,0.0969100130080564,0.021990232555520003,,,,,,,,,staircase,351.33441809995566,147.0,2.0,77.0,0.021990232555520003,,,,6,1.8528023000108078,2.1074416000628844,,,,0,,,,67809,64.0,
,,,0,28,-1,0,0.0969100130080564,0.027487790694400004,,,,,,,,,staircase,357.30424550001044,141.0,2.0,77.0,0.027487790694400004,,,,1,1.2290280000306666,1.5459850000916049,,,,1,,,,67809,64.0,
,,,0,29,-1,0,0.0969100130080564,0.021990232555520003,,,,,,,,,staircase,362.89088379999157,192.0,2.0,77.0,0.021990232555520003,,,,0,1.3780391999753192,1.7638329999754205,,,,0,,,,67809,64.0,
,,,0,30,-1,0,0.0969100130080564,0.027487790694400004,,,,,,,,,staircase,369.598169600009,173.0,2.0,77.0,0.027487790694400004,,,,1,1.431492800009437,1.751692800084129,,,,0,,,,67809,64.0,
,,,0,31,-1,0,0.0969100130080564,0.034359738368000006,,,,,,,,,staircase,375.8070839999709,160.0,2.0,77.0,0.034359738368000006,,,,0,0.7476212999317795,1.0956439999863505,,,,1,,,,67809,64.0,
,,,0,32,-1,0,0.0969100130080564,0.027487790694400004,,,,,,,,,staircase,381.1903141000075,179.0,2.0,77.0,0.027487790694400004,,,,7,1.6947359000332654,1.942761000012979,,,,1,,,,67809,64.0,
,,,0,33,-1,0,0.0969100130080564,0.021990232555520003,,,,,,,,,staircase,387.7077454000246,160.0,2.0,77.0,0.021990232555520003,,,,1,1.2197298000101,1.5615048999898136,,,,0,,,,67809,64.0,
,,,0,34,-1,0,0.0969100130080564,0.027487790694400004,,,,,,,,,staircase,393.63113770005293,173.0,2.0,77.0,0.027487790694400004,,,,6,1.2933052000589669,1.561173800029792,,,,1,,,,67809,64.0,
,,,0,35,-1,0,0.0969100130080564,0.021990232555520003,,,,,,,,,staircase,399.5662884999765,166.0,2.0,77.0,0.021990232555520003,,,,1,2.0254786000587046,2.29544190003071,,,,0,,,,67809,64.0,
,,,0,36,-1,0,0.0969100130080564,0.027487790694400004,,,,,,,,,staircase,406.2737673999509,134.0,2.0,77.0,0.027487790694400004,,,,7,1.0555299000116065,1.322923600091599,,,,1,,,,67809,64.0,
,,,0,37,-1,0,0.0969100130080564,0.021990232555520003,,,,,,,,,staircase,411.41260499996133,134.0,2.0,77.0,0.021990232555520003,,,,0,1.1205809999955818,1.4526611999608576,,,,1,,,,67809,64.0,
,,,0,38,-1,0,0.0969100130080564,0.017592186044416,,,,,,,,,staircase,416.7318245000206,166.0,2.0,77.0,0.017592186044416,,,,0,0.8926676999544725,1.4931125999428332,,,,0,,,,67809,64.0,
,,,0,39,-1,0,0.0969100130080564,0.021990232555520003,,,,,,,,,staircase,422.45328779995907,166.0,2.0,77.0,0.021990232555520003,,,,1,1.994802700006403,2.372987600043416,,,,0,,,,67809,64.0,
,,,0,40,-1,0,0.0969100130080564,0.027487790694400004,,,,,,,,,staircase,429.2916371000465,179.0,2.0,77.0,0.027487790694400004,,,,6,1.1150665999157354,1.42691359994933,,,,1,,,,67809,64.0,
,,,0,41,-1,0,0.0969100130080564,0.021990232555520003,,,,,,,,,staircase,435.3598721999442,166.0,2.0,77.0,0.021990232555520003,,,,0,1.3006440000608563,1.6950782999629155,,,,0,,,,67809,64.0,
,,,0,42,-1,0,0.0969100130080564,0.027487790694400004,,,,,,,,,staircase,441.4010105000343,192.0,2.0,77.0,0.027487790694400004,,,,1,1.6821003999793902,2.0321995000122115,,,,0,,,,67809,64.0,
,,,0,43,-1,0,0.0969100130080564,0.034359738368000006,,,,,,,,,staircase,448.23946630000137,166.0,2.0,77.0,0.034359738368000006,,,,0,1.2426756999921054,1.6060278000077233,,,,1,,,,67809,64.0,
,,,0,44,-1,0,0.0969100130080564,0.027487790694400004,,,,,,,,,staircase,454.2770516000455,134.0,2.0,77.0,0.027487790694400004,,,,6,1.9815877999644727,2.216799500049092,,,,0,,,,67809,64.0,
,,,0,45,-1,0,0.0969100130080564,0.034359738368000006,,,,,,,,,staircase,460.30440589995123,179.0,2.0,77.0,0.034359738368000006,,,,7,1.2558635000605136,1.4555979000870138,,,,1,,,,67809,64.0,
,,,0,46,-1,0,0.0969100130080564,0.027487790694400004,,,,,,,,,staircase,466.1709420999978,147.0,2.0,77.0,0.027487790694400004,,,,6,1.929765300010331,2.2244226000038907,,,,0,,,,67809,64.0,
,,,0,47,-1,0,0.0969100130080564,0.034359738368000006,,,,,,,,,staircase,472.5414905999787,134.0,2.0,77.0,0.034359738368000006,,,,0,0.8196656999643892,1.11978279997129,,,,1,,,,67809,64.0,
,,,0,48,-1,0,0.0969100130080564,0.027487790694400004,,,,,,,,,staircase,477.5626655999804,186.0,2.0,77.0,0.027487790694400004,,,,7,1.0031857000431046,1.218935800017789,,,,1,,,,67809,64.0,
,,,0,49,-1,0,0.0969100130080564,0.021990232555520003,,,,,,,,,staircase,483.53351239999756,173.0,2.0,77.0,0.021990232555520003,,,,0,0.9800559999421239,1.5187876999843866,,,,0,,,,67809,64.0,
,,,0,50,-1,0,0.0969100130080564,0.027487790694400004,,,,,,,,,staircase,489.32537430000957,192.0,2.0,77.0,0.027487790694400004,,,,1,1.6415488999336958,1.8824770000064746,,,,0,,,,67809,64.0,
,,,0,51,-1,0,0.0969100130080564,0.034359738368000006,,,,,,,,,staircase,496.04656659998,192.0,2.0,77.0,0.034359738368000006,,,,6,2.3671921000350267,2.7673401000211015,,,,1,,,,67809,64.0,
,,,0,52,-1,0,0.0969100130080564,0.027487790694400004,,,,,,,,,staircase,503.58107069996186,192.0,2.0,77.0,0.027487790694400004,,,,1,1.194611300015822,1.4973674999782816,,,,0,,,,67809,64.0,
,,,0,53,-1,0,0.0969100130080564,0.034359738368000006,,,,,,,,,staircase,509.7532462000381,160.0,2.0,77.0,0.034359738368000006,,,,7,1.6253495999844745,1.8604391999542713,,,,1,,,,67809,64.0,
,,,0,54,-1,0,0.0969100130080564,0.027487790694400004,,,,,,,,,staircase,515.989394400036,186.0,2.0,77.0,0.027487790694400004,,,,0,1.4901961999712512,1.8940304999705404,,,,1,,,,67809,64.0,
,,,0,55,-1,0,0.0969100130080564,0.021990232555520003,,,,,,,,,staircase,522.6183480999898,160.0,2.0,77.0,0.021990232555520003,,,,6,2.362807200057432,2.7507460999768227,,,,0,,,,67809,64.0,
,,,0,56,-1,0,0.0969100130080564,0.027487790694400004,,,,,,,,,staircase,529.5891358000226,134.0,2.0,77.0,0.027487790694400004,,,,1,1.1689560000086203,1.4883538000285625,,,,1,,,,67809,64.0,
,,,0,57,-1,0,0.0969100130080564,0.021990232555520003,,,,,,,,,staircase,534.9074393999763,173.0,2.0,77.0,0.021990232555520003,,,,0,2.345730100059882,2.6248212000355124,,,,1,,,,67809,64.0,
,,,0,58,-1,0,0.0969100130080564,0.017592186044416,,,,,,,,,staircase,542.077750000055,134.0,2.0,77.0,0.017592186044416,,,,1,1.3705607999581844,1.8218032999429852,,,,0,,,,67809,64.0,
,,,0,59,-1,0,0.0969100130080564,0.021990232555520003,,,,,,,,,staircase,547.7843210999854,173.0,2.0,77.0,0.021990232555520003,,,,6,1.8819663999602199,2.2926585999084637,,,,0,,,,67809,64.0,
,,,0,60,-1,0,0.0969100130080564,0.027487790694400004,,,,,,,,,staircase,554.3866141999606,147.0,2.0,77.0,0.027487790694400004,,,,1,1.6325528000015765,1.9129026000155136,,,,1,,,,67809,64.0,
,,,0,61,-1,0,0.0969100130080564,0.021990232555520003,,,,,,,,,staircase,560.4266522000544,173.0,2.0,77.0,0.021990232555520003,,,,0,1.1448623000178486,1.4450745000503957,,,,0,,,,67809,64.0,
,,,0,62,-1,0,0.0969100130080564,0.027487790694400004,,,,,,,,,staircase,566.4304737000493,141.0,2.0,77.0,0.027487790694400004,,,,1,1.3907134999753907,1.7305054999887943,,,,1,,,,67809,64.0,
,,,0,63,-1,0,0.0969100130080564,0.021990232555520003,,,,,,,,,staircase,572.1040351999691,166.0,2.0,77.0,0.021990232555520003,,,,1,2.2311960000079125,2.4113025000551715,,,,0,,,,67809,64.0,
,,,0,64,-1,0,0.0969100130080564,0.027487790694400004,,,,,,,,,staircase,578.8218879000051,179.0,2.0,77.0,0.027487790694400004,,,,0,0.4421798000112176,0.6135503000114113,,,,1,,,,67809,64.0,
,,,0,65,-1,0,0.0969100130080564,0.021990232555520003,,,,,,,,,staircase,584.1164682999952,147.0,2.0,77.0,0.021990232555520003,,,,6,1.6309321000007913,1.8304349000100046,,,,0,,,,67809,64.0,
,,,0,66,-1,0,0.0969100130080564,0.027487790694400004,,,,,,,,,staircase,590.0182352999691,192.0,2.0,77.0,0.027487790694400004,,,,7,2.242629799991846,2.4424959999741986,,,,0,,,,67809,64.0,
,,,0,67,-1,0,0.0969100130080564,0.034359738368000006,,,,,,,,,staircase,597.1039811000228,186.0,2.0,77.0,0.034359738368000006,,,,6,1.2856275000376627,1.5817026000004262,,,,1,,,,67809,64.0,
,,,0,68,-1,0,0.0969100130080564,0.027487790694400004,,,,,,,,,staircase,603.4423276999732,166.0,2.0,77.0,0.027487790694400004,,,,1,1.0286926999688148,1.260647299932316,,,,1,,,,67809,64.0,
,,,0,69,-1,0,0.0969100130080564,0.021990232555520003,,,,,,,,,staircase,609.183022000012,173.0,2.0,77.0,0.021990232555520003,,,,0,0.8730434000026435,1.1712623999919742,,,,0,,,,67809,64.0,
,,,0,-1,-1,0,,,materials/instructions\11_session_start.png,614.8885840000585,626.3767109999899,0,11.037219499936327,11.48635020002257,0.011624100035987794,11.49385930004064,,,,,,,,,,,,,,,,,,,,67809,64.0,
,,,0,-1,-1,0,,,,,,,,,,,,,,,,,,,,,,,,,,,0.026883059299123206,,,67809,64.0,
152,-152,-45,0,0,0,8,,,,,,,,,,,session,626.3934980999911,160.0,2.0,77.0,0.026883059299123206,4,2.155805899994448,2.509492599987425,1,1.7940721999621019,1.9757538000121713,1,2.427819599979557,2.5662289999891073,,,70.0,54.0,67809,64.0,
-152,152,90,0,1,1,7,,,,,,,,,,,session,639.9585793999722,166.0,2.0,77.0,0.026883059299123206,2,1.3868060999084264,1.6038236999884248,6,1.011165100033395,1.2740247999317944,1,1.4426584000466391,1.6440438999561593,,,74.0,61.0,67809,64.0,
-152,-152,-45,0,2,2,12,,,,,,,,,,,session,651.4144691999536,179.0,2.0,77.0,0.026883059299123206,3,1.1867226000176743,1.4691094000590965,1,1.3194607999175787,1.5662366999313235,1,1.2378001000033692,1.4395372999133542,,,67.0,51.0,67809,64.0,
-152,152,45,0,3,3,6,,,,,,,,,,,session,662.7042694999836,134.0,2.0,77.0,0.026883059299123206,3,2.746434099972248,3.136528700008057,7,1.2467024999205023,1.4119898999342695,0,2.3768286999547854,2.560827099950984,,,77.0,54.0,67809,64.0,
-152,-152,45,0,4,4,14,,,,,,,,,,,session,676.065584499971,160.0,2.0,77.0,0.026883059299123206,3,1.0172105999663472,1.2735304000088945,7,1.5295169000746682,1.723723000031896,1,1.038970399997197,1.255686099990271,,,77.0,58.0,67809,64.0,
152,152,-45,0,5,5,0,,,,,,,,,,,session,686.9574959999882,160.0,2.0,77.0,0.026883059299123206,5,0.7209090999094769,0.906559299910441,1,0.49355649994686246,0.7247666999464855,1,0.44093449995853007,0.6595039999810979,,,58.0,54.0,67809,64.0,
-152,-152,90,0,6,6,15,,,,,,,,,,,session,695.6162431000266,141.0,2.0,77.0,0.026883059299123206,2,2.3346591000445187,2.534879000042565,7,3.5350888000102714,3.716420599957928,0,0.7063964999979362,0.8746936999959871,,,70.0,61.0,67809,64.0,
152,152,0,0,7,7,1,,,,,,,,,,,session,709.024883099948,173.0,2.0,77.0,0.026883059299123206,5,0.7810355999972671,0.9704414999578148,1,1.2739606000250205,1.440574900014326,1,0.7658085000002757,0.9828933000098914,,,64.0,61.0,67809,64.0,
152,-152,90,0,8,8,11,,,,,,,,,,,session,719.1975571999792,147.0,2.0,77.0,0.026883059299123206,4,2.163705899962224,2.4772441999521106,0,1.0292243000585586,1.3334887999808416,0,1.9360914001008496,2.1207549000391737,,,51.0,61.0,67809,64.0,
-152,-152,0,0,9,9,13,,,,,,,,,,,session,731.1080327000236,147.0,2.0,77.0,0.026883059299123206,3,0.8146783000556752,1.0981719000265002,0,0.6446510000387207,0.8661134999711066,1,1.468330700066872,1.6360948000801727,,,54.0,58.0,67809,64.0,
152,152,90,0,10,10,3,,,,,,,,,,,session,740.814578599995,141.0,2.0,77.0,0.026883059299123206,5,0.8945119000272825,1.08191499998793,6,1.0795702000614256,1.2636189000913873,1,1.1612584999529645,1.3625242999987677,,,51.0,58.0,67809,64.0,
-152,152,0,0,11,11,5,,,,,,,,,,,session,750.3058359000133,141.0,2.0,77.0,0.026883059299123206,4,4.3235563999041915,4.58724209992215,7,2.559970600064844,2.7124569000443444,0,0.7934893000638112,0.9783611000748351,,,51.0,70.0,67809,64.0,
152,-152,0,0,12,12,9,,,,,,,,,,,session,764.6520342000294,173.0,2.0,77.0,0.026883059299123206,4,0.7047663999255747,0.9388680999400094,0,0.35308859997894615,0.5520712999859825,1,1.114643199951388,1.3146962999599054,,,64.0,70.0,67809,64.0,
152,152,45,0,13,13,2,,,,,,,,,,,session,774.1740881999722,192.0,2.0,77.0,0.026883059299123206,5,0.761564000044018,0.9603511999594048,7,1.1399514999939129,1.308607800048776,1,1.0173660999862477,1.1644631999079138,,,67.0,58.0,67809,64.0,
-152,152,-45,0,14,14,4,,,,,,,,,,,session,784.5986775000347,147.0,2.0,77.0,0.026883059299123206,3,3.4948668000288308,3.7283799999859184,7,1.2860851000295952,1.4344990000827238,0,0.35552099999040365,0.555724999983795,,,70.0,77.0,67809,64.0,
152,-152,45,0,15,15,10,,,,,,,,,,,session,796.8580387999536,160.0,2.0,77.0,0.026883059299123206,5,1.4443635999923572,1.6286979999858886,1,1.3244427000172436,1.512074299971573,0,0.3305002999259159,0.4804403999587521,,,64.0,67.0,67809,64.0,
152,-152,90,1,0,16,11,,,,,,,,,,,session,807.1325919999508,173.0,2.0,77.0,0.026883059299123206,4,0.7951755999820307,1.0093170000473037,6,1.0479926998959854,1.2423274999018759,1,0.8035768000409007,1.0037245000712574,,,64.0,74.0,67809,64.0,
152,152,90,1,1,17,3,,,,,,,,,,,session,817.2069068000419,160.0,2.0,77.0,0.026883059299123206,5,0.7185375000117347,0.8893924000440165,6,1.1425420000450686,1.3129260999849066,1,0.5161970999324694,0.69862399995327,,,74.0,58.0,67809,64.0,
-152,-152,0,1,2,18,13,,,,,,,,,,,session,826.6806762999622,186.0,2.0,77.0,0.026883059299123206,3,1.0409938000375405,1.2623758000554517,0,1.1410546000115573,1.326386599917896,1,0.41266140004154295,0.6284627000568435,,,77.0,51.0,67809,64.0,
152,152,45,1,3,19,2,,,,,,,,,,,session,836.8375331000425,154.0,2.0,77.0,0.026883059299123206,3,1.2108850000659004,1.525084700086154,6,1.0268407000694424,1.2165934999939054,0,0.3762887000339106,0.5224983000662178,,,67.0,54.0,67809,64.0,
152,152,45,1,3,19,2,,,materials/instructions\12_break.png,846.5375811000122,859.6341902000131,0,12.89354639989324,13.094613899942487,0.028450399986468256,13.101709799957462,,,,,,,,,,,,,,,,,,,,67809,64.0,
-152,-152,45,1,4,20,14,,,,,,,,,,,session,859.6495823999867,179.0,2.0,77.0,0.026883059299123206,3,0.8414715999970213,1.0553761000046507,7,1.269844499998726,1.4397150999866426,1,1.5349201000062749,1.6661407999927178,,,61.0,54.0,67809,64.0,
152,152,0,1,5,21,1,,,,,,,,,,,session,870.5110194999725,166.0,2.0,77.0,0.026883059299123206,5,1.8950386999640614,2.0765054000075907,0,0.46578349999617785,0.7479773999657482,0,0.4483128000283614,0.6630063999909908,,,70.0,77.0,67809,64.0,
-152,-152,-45,1,6,22,12,,,,,,,,,,,session,880.9721634000307,173.0,2.0,77.0,0.026883059299123206,3,1.374986800015904,1.6090550000080839,1,2.195540399989113,2.4281201000558212,1,0.33340960007626563,0.5453313000034541,,,61.0,54.0,67809,64.0,
152,-152,0,1,7,23,9,,,,,,,,,,,session,891.9638693999732,166.0,2.0,77.0,0.026883059299123206,4,0.758843700052239,0.9557943000691012,0,0.3943498000735417,0.7470510000130162,1,0.3413981000194326,0.542605199967511,,,70.0,64.0,67809,64.0,
-152,-152,90,1,8,24,15,,,,,,,,,,,session,900.9849602000322,154.0,2.0,77.0,0.026883059299123206,4,3.663529700017534,3.930398599943146,0,0.39644189993850887,0.6468364000320435,0,0.5461140000261366,0.8312565000960603,,,64.0,70.0,67809,64.0,
-152,152,-45,1,9,25,4,,,,,,,,,,,session,912.96601990005,141.0,2.0,77.0,0.026883059299123206,2,2.70461199991405,2.887853099964559,1,1.1123253999976441,1.327043000026606,1,1.0094846999272704,1.2094320999458432,,,74.0,67.0,67809,64.0,
-152,152,45,1,10,26,6,,,,,,,,,,,session,924.9369234000333,147.0,2.0,77.0,0.026883059299123206,2,1.1646162000251934,1.3255217999685556,7,1.2468218998983502,1.4470688999863341,1,0.3828116999939084,0.5421369998948649,,,61.0,64.0,67809,64.0,
152,152,-45,1,11,27,0,,,,,,,,,,,session,934.5298097999766,134.0,2.0,77.0,0.026883059299123206,5,1.476313800085336,1.6458854000084102,0,0.3620482999831438,0.6482803999679163,0,0.6279987000161782,0.8452076999237761,,,77.0,77.0,67809,64.0,
-152,152,90,1,12,28,7,,,,,,,,,,,session,944.1537770000286,192.0,2.0,77.0,0.026883059299123206,2,1.4058777999598533,1.5889834000263363,7,1.2227149999234825,1.374390900018625,0,0.4284142000833526,0.6304961000569165,,,58.0,64.0,67809,64.0,
152,-152,-45,1,13,29,8,,,,,,,,,,,session,954.7790803000098,179.0,2.0,77.0,0.026883059299123206,4,1.1927139000035822,1.4425921000074595,7,1.0803686999715865,1.2193717999616638,1,0.7268322999589145,0.928645999985747,,,61.0,51.0,67809,64.0,
152,-152,45,1,14,30,10,,,,,,,,,,,session,965.0721292999806,173.0,2.0,77.0,0.026883059299123206,4,0.8308851000620052,1.0632165001006797,7,1.123662699945271,1.290438799886033,0,0.6171505999518558,0.9674713999265805,,,64.0,67.0,67809,64.0,
-152,152,0,1,15,31,5,,,,,,,,,,,session,975.260930199991,134.0,2.0,77.0,0.026883059299123206,2,1.3990263999439776,1.6627919999882579,1,1.1793184000998735,1.4109157000202686,0,0.3434974999399856,0.5669818999012932,,,61.0,74.0,67809,64.0,
152,-152,90,2,0,32,11,,,,,,,,,,,session,985.1377205000026,134.0,2.0,77.0,0.026883059299123206,4,1.1413924999069422,1.3748602999839932,0,0.3636416000081226,0.6138479000655934,0,0.32559310004580766,0.5268642000155523,,,67.0,61.0,67809,64.0,
152,152,0,2,1,33,1,,,,,,,,,,,session,993.8251433999976,186.0,2.0,77.0,0.026883059299123206,5,0.8285449000541121,1.0194586999714375,1,1.0954687000485137,1.27802349999547,1,0.31642820010893047,0.5151293000672013,,,70.0,77.0,67809,64.0,
-152,152,0,2,2,34,5,,,,,,,,,,,session,1004.1015619999962,186.0,2.0,77.0,0.026883059299123206,2,3.0909775000764057,3.3080995000200346,0,0.747770500020124,0.9429189000511542,0,1.4443957000039518,1.6302217000629753,,,58.0,64.0,67809,64.0,
152,-152,0,2,3,35,9,,,,,,,,,,,session,1016.707942100009,160.0,2.0,77.0,0.026883059299123206,4,1.8198473999509588,2.606126599945128,0,0.427368100034073,0.590871199965477,0,0.37648340000305325,0.5801845999667421,,,64.0,51.0,67809,64.0,
-152,152,-45,2,4,36,4,,,,,,,,,,,session,1026.8667545999633,154.0,2.0,77.0,0.026883059299123206,5,1.4768860000185668,1.710089800064452,0,0.34377529995981604,0.5937010999768972,0,0.5248235000763088,0.7701033999910578,,,74.0,54.0,67809,64.0,
-152,152,90,2,5,37,7,,,,,,,,,,,session,1036.3179787000408,160.0,2.0,77.0,0.026883059299123206,2,1.4220707999775186,1.6064399000024423,6,1.5600813999772072,1.7765939000528306,0,1.2113242000341415,1.3613334000110626,,,64.0,61.0,67809,64.0,
-152,-152,45,2,6,38,14,,,,,,,,,,,session,1047.582516000024,141.0,2.0,77.0,0.026883059299123206,3,0.9754480998963118,1.307727999985218,7,1.399626100086607,1.5601320000132546,1,0.33428539999295026,0.49659640004392713,,,74.0,74.0,67809,64.0,
152,152,-45,2,7,39,0,,,,,,,,,,,session,1057.423102300032,147.0,2.0,77.0,0.026883059299123206,5,0.6189219000516459,0.7690348000032827,1,1.1524566999869421,1.2804238999960944,1,0.36447879998013377,0.5103123999433592,,,54.0,61.0,67809,64.0,
152,152,-45,2,7,39,0,,,materials/instructions\12_break.png,1066.0536871999502,1076.3157735000132,0,10.017440899973735,10.260078800027259,0.029854800086468458,10.26712440000847,,,,,,,,,,,,,,,,,,,,67809,64.0,
-152,-152,90,2,8,40,15,,,,,,,,,,,session,1076.3311459999532,173.0,2.0,77.0,0.026883059299123206,3,1.0641420999309048,1.3477703999960795,6,1.0778857000404969,1.2448300999822095,1,1.2124256000388414,1.3369498000247404,,,51.0,58.0,67809,64.0,
152,152,90,2,9,41,3,,,,,,,,,,,session,1086.7562700000126,166.0,2.0,77.0,0.026883059299123206,3,1.912175500066951,2.2145129999844357,1,1.5459786999272183,1.7938064999179915,0,1.3150964000960812,1.515270100091584,,,64.0,67.0,67809,64.0,
152,152,45,2,10,42,2,,,,,,,,,,,session,1098.938563099946,141.0,2.0,77.0,0.026883059299123206,5,0.7908975000027567,0.9752388999331743,7,1.4947547999909148,1.6668705999618396,1,0.9902307000011206,1.192700400017202,,,54.0,54.0,67809,64.0,
152,-152,-45,2,11,43,8,,,,,,,,,,,session,1108.6978511000052,186.0,2.0,77.0,0.026883059299123206,4,0.8867979999631643,1.1191995999542996,1,0.965996399987489,1.1662985000293702,0,0.28693900001235306,0.521422200021334,,,70.0,54.0,67809,64.0,
-152,152,45,2,12,44,6,,,,,,,,,,,session,1118.5175853000255,134.0,2.0,77.0,0.026883059299123206,3,1.7739270000020042,2.124497800017707,0,0.3629723999183625,0.595496500027366,0,0.2445591000141576,0.4613877999363467,,,51.0,67.0,67809,64.0,
152,-152,45,2,13,45,10,,,,,,,,,,,session,1127.6093422999838,179.0,2.0,77.0,0.026883059299123206,4,0.7820801999187097,0.9986791999544948,1,0.36007599998265505,0.717818700009957,1,1.8342734000179917,2.0212213000049815,,,67.0,64.0,67809,64.0,
-152,-152,0,2,14,46,13,,,,,,,,,,,session,1138.303135999944,160.0,2.0,77.0,0.026883059299123206,3,0.6428905999055132,0.8575671999715269,0,1.23071249993518,1.4273325999965891,1,0.5950568000553176,0.8117488001007587,,,70.0,61.0,67809,64.0,
-152,-152,-45,2,15,47,12,,,,,,,,,,,session,1148.125941999955,192.0,2.0,77.0,0.026883059299123206,3,0.781436700024642,1.0014099000254646,1,1.0081432999577373,1.2727639999939129,1,0.33569610002450645,0.5526835999917239,,,70.0,54.0,67809,64.0,
152,152,90,3,0,48,3,,,,,,,,,,,session,1158.0657996999798,166.0,2.0,77.0,0.026883059299123206,2,2.04261859995313,2.2983530999626964,0,0.3409213999984786,0.5623517000349239,0,0.010848100064322352,0.22560999996494502,,,61.0,67.0,67809,64.0,
152,-152,45,3,1,49,10,,,,,,,,,,,session,1167.703418900026,166.0,2.0,77.0,0.026883059299123206,5,1.4308226000284776,1.6320812000194564,0,0.2875381000339985,0.5378373999847099,0,0.9577870999928564,1.1243103999877349,,,67.0,51.0,67809,64.0,
152,-152,-45,3,2,50,8,,,,,,,,,,,session,1177.5321993000107,186.0,2.0,77.0,0.026883059299123206,4,0.4356849999167025,0.6524395999731496,1,0.9942923999624327,1.1949849999509752,1,0.6668785000219941,0.8837576999794692,,,67.0,74.0,67809,64.0,
-152,-152,-45,3,3,51,12,,,,,,,,,,,session,1187.3726901999908,141.0,2.0,77.0,0.026883059299123206,3,1.4902781998971477,1.7088559999829158,1,3.8019601000705734,3.9494403999997303,1,1.042566700023599,1.2783647999167442,,,67.0,70.0,67809,64.0,
152,152,45,3,4,52,2,,,,,,,,,,,session,1200.7827543000458,186.0,2.0,77.0,0.026883059299123206,5,1.2948904000222683,1.5442522000521421,7,1.6791670999955386,1.8152612000703812,1,3.3886141000548378,3.605325900018215,,,70.0,74.0,67809,64.0,
-152,152,-45,3,5,53,4,,,,,,,,,,,session,1214.8998009000206,134.0,2.0,77.0,0.026883059299123206,5,1.5506004999624565,1.7676964999409392,0,0.4631844999967143,0.6329145000781864,0,0.010769899934530258,0.012660000007599592,,,77.0,77.0,67809,64.0,
152,152,-45,3,6,54,0,,,,,,,,,,,session,1223.849791500019,192.0,2.0,77.0,0.026883059299123206,5,0.7198627999750897,0.9081864999607205,1,1.4383057999657467,1.6142730999272317,1,0.31177789997309446,0.5636662000324577,,,67.0,51.0,67809,64.0,
152,-152,90,3,7,55,11,,,,,,,,,,,session,1233.857198899961,173.0,2.0,77.0,0.026883059299123206,4,1.0791127000702545,1.3117559000384063,1,1.1787294000387192,1.3637624999973923,1,1.4860491000581533,1.668380600051023,,,61.0,51.0,67809,64.0,
152,-152,0,3,8,56,9,,,,,,,,,,,session,1244.7145330000203,160.0,2.0,77.0,0.026883059299123206,4,0.41240289993584156,0.6621299999533221,0,0.3653423999203369,0.5433484999230132,1,0.36446569999679923,0.5148853999562562,,,64.0,74.0,67809,64.0,
-152,-152,90,3,9,57,15,,,,,,,,,,,session,1253.1228684999514,160.0,2.0,77.0,0.026883059299123206,3,0.8823947999626398,1.1265443000011146,6,1.6934400999452919,1.9126730998978019,1,0.39293570001609623,0.5938003999181092,,,67.0,64.0,67809,64.0,
152,152,0,3,10,58,1,,,,,,,,,,,session,1263.4328386000125,147.0,2.0,77.0,0.026883059299123206,5,0.7464039000915363,0.9148995000869036,0,1.3138724999735132,1.4808513999450952,1,1.014740499900654,1.1865786999696866,,,58.0,70.0,67809,64.0,
-152,152,0,3,11,59,5,,,,,,,,,,,session,1273.2270087000215,134.0,2.0,77.0,0.026883059299123206,3,1.814378699986264,2.031922099995427,1,1.5647350000217557,1.744983799988404,0,0.31230009999126196,0.48319229995831847,,,64.0,67.0,67809,64.0,
-152,152,0,3,11,59,5,,,materials/instructions\12_break.png,1283.7159584000474,1319.9066037000157,0,36.050637700012885,36.18888060003519,0.010674500023014843,36.19620340003166,,,,,,,,,,,,,,,,,,,,67809,64.0,
-152,-152,0,3,12,60,13,,,,,,,,,,,session,1319.9225730999606,134.0,2.0,77.0,0.026883059299123206,3,1.0971147998934612,1.2652860999805853,0,0.3216979999560863,0.5723684999393299,1,0.31096899998374283,0.49371199996676296,,,64.0,67.0,67809,64.0,
-152,-152,45,3,13,61,14,,,,,,,,,,,session,1328.5297055999981,160.0,2.0,77.0,0.026883059299123206,3,0.5681806999491528,0.7698069999460131,7,1.39527870004531,1.5690285000018775,1,0.5265842999797314,0.6936905999900773,,,70.0,61.0,67809,64.0,
-152,152,90,3,14,62,7,,,,,,,,,,,session,1338.0042669000104,173.0,2.0,77.0,0.026883059299123206,2,1.193499300046824,1.3482464000117034,6,1.3518745999317616,1.4518299999181181,1,1.2081102998927236,1.3774475998943672,,,77.0,58.0,67809,64.0,
-152,152,45,3,15,63,6,,,,,,,,,,,session,1349.0324533999665,173.0,2.0,77.0,0.026883059299123206,2,0.7488728000316769,0.9334327999968082,7,1.2863062000833452,1.4661293000681326,1,1.5949287000112236,1.7921719000441954,,,51.0,61.0,67809,64.0,
152,-152,-45,4,0,64,8,,,,,,,,,,,session,1359.6660817000084,141.0,2.0,77.0,0.026883059299123206,4,0.7941490000812337,0.9588311000261456,1,1.4946444000815973,1.639531800057739,1,0.5369384000077844,0.7860721000470221,,,64.0,58.0,67809,64.0,
-152,152,90,4,1,65,7,,,,,,,,,,,session,1369.1937075000023,173.0,2.0,77.0,0.026883059299123206,2,2.0639583999291062,2.295309199951589,6,1.3148340000770986,1.4828733000904322,1,1.1384610999375582,1.371545200003311,,,54.0,64.0,67809,64.0,
152,152,0,4,2,66,1,,,,,,,,,,,session,1380.9868300999515,173.0,2.0,77.0,0.026883059299123206,5,0.8972224000608549,1.0974095000419766,0,1.2141744999680668,1.4464981999481097,1,1.367084400029853,1.4955020999768749,,,61.0,51.0,67809,64.0,
-152,-152,0,4,3,67,13,,,,,,,,,,,session,1391.6114593000384,166.0,2.0,77.0,0.026883059299123206,3,0.9567231999244541,1.1587788999313489,0,1.0975010000402108,1.264837900060229,1,1.1824163999408484,1.3498176999855787,,,74.0,54.0,67809,64.0,
-152,-152,45,4,4,68,14,,,,,,,,,,,session,1402.0038860000204,147.0,2.0,77.0,0.026883059299123206,3,0.8931799998972565,1.1266380999004468,7,1.4961676999228075,1.6530367999803275,1,0.8456423999741673,1.0107939000008628,,,77.0,61.0,67809,64.0,
152,-152,0,4,5,69,9,,,,,,,,,,,session,1412.240608699969,134.0,2.0,77.0,0.026883059299123206,4,0.803330700029619,1.0557640999322757,0,0.8267816000152379,1.0475247000576928,1,1.5787205999949947,1.7776060999603942,,,54.0,58.0,67809,64.0,
-152,152,0,4,6,70,5,,,,,,,,,,,session,1421.9325477000093,192.0,2.0,77.0,0.026883059299123206,2,1.1817004000768065,1.3857042000163347,0,0.671458899974823,0.9353648999240249,0,0.7461586999706924,0.9462975999340415,,,67.0,67.0,67809,64.0,
-152,-152,-45,4,7,71,12,,,,,,,,,,,session,1432.442626700038,147.0,2.0,77.0,0.026883059299123206,3,1.3638397000031546,1.6124713000608608,7,1.8155374999623746,1.9451478000264615,1,1.2525398000143468,1.3981115999631584,,,74.0,58.0,67809,64.0,
-152,-152,90,4,8,72,15,,,,,,,,,,,session,1443.8194872000022,192.0,2.0,77.0,0.026883059299123206,3,1.2197401999728754,1.4206350999884307,6,1.2632887000218034,1.3592626999597996,1,2.04037500009872,2.2086332000326365,,,54.0,51.0,67809,64.0,
-152,152,-45,4,9,73,4,,,,,,,,,,,session,1455.4729181999573,160.0,2.0,77.0,0.026883059299123206,2,1.4374114000238478,1.6376806000480428,7,2.7496380999218673,2.899913899949752,1,1.0763020999729633,1.2243434999836609,,,58.0,67.0,67809,64.0,
152,152,-45,4,10,74,0,,,,,,,,,,,session,1467.8638808999676,134.0,2.0,77.0,0.026883059299123206,5,1.2071080999448895,1.3545409999787807,1,0.5023937000660226,0.7024084000149742,1,0.28982589999213815,0.459443400031887,,,70.0,77.0,67809,64.0,
-152,152,45,4,11,75,6,,,,,,,,,,,session,1476.8256790000014,173.0,2.0,77.0,0.026883059299123206,3,1.3213925999589264,1.521287600044161,1,1.2697308999486268,1.4308732999488711,0,1.6127818999812007,1.7804574000183493,,,74.0,67.0,67809,64.0,
152,-152,45,4,12,76,10,,,,,,,,,,,session,1488.5702663999982,173.0,2.0,77.0,0.026883059299123206,4,0.7208248999668285,0.9527295000152662,7,1.8971626999555156,2.0668508999515325,1,1.3824860999593511,1.54251529998146,,,54.0,51.0,67809,64.0,
152,-152,90,4,13,77,11,,,,,,,,,,,session,1499.5282687,192.0,2.0,77.0,0.026883059299123206,4,0.802118799998425,0.9697951000416651,7,1.5481480000307783,1.6764089000644162,1,1.0598200999666005,1.2290269000222906,,,51.0,67.0,67809,64.0,
152,152,45,4,14,78,2,,,,,,,,,,,session,1510.3356404999504,186.0,2.0,77.0,0.026883059299123206,5,1.2998563000001013,1.4814681001007557,1,1.3823265000246465,1.5779527000850067,1,1.4049566999310628,1.6220476999878883,,,74.0,67.0,67809,64.0,
152,152,90,4,15,79,3,,,,,,,,,,,session,1522.3816135999514,147.0,2.0,77.0,0.026883059299123206,5,0.7706649000756443,0.9194724999833852,6,1.59528740006499,1.7347785000456497,0,1.1256769999163225,1.309335199999623,,,51.0,67.0,67809,64.0,
152,152,90,4,15,79,3,,,materials/instructions\12_break.png,1532.505435799947,1572.2667188999476,0,39.54308069997933,39.759599399985746,0.011059599928557873,39.76266150001902,,,,,,,,,,,,,,,,,,,,67809,64.0,
-152,-152,0,5,0,80,13,,,,,,,,,,,session,1572.2784517999971,147.0,2.0,77.0,0.026883059299123206,3,1.256028600037098,1.44023730000481,0,0.362449900014326,0.4524086000164971,1,0.36159260000567883,0.5064560000319034,,,58.0,67.0,67809,64.0,
-152,-152,45,5,1,81,14,,,,,,,,,,,session,1580.9008033999708,147.0,2.0,77.0,0.026883059299123206,5,1.4808458000188693,1.6283824000274763,0,0.3608034999342635,0.5460263999411836,0,0.45445530000142753,0.7353210999863222,,,70.0,54.0,67809,64.0,
152,-152,90,5,2,82,11,,,,,,,,,,,session,1590.1793346999912,173.0,2.0,77.0,0.026883059299123206,4,0.6966977999545634,0.8577290000393987,6,1.3250504999887198,1.4433986999792978,1,0.3022901000222191,0.48581999994348735,,,51.0,74.0,67809,64.0,
152,152,-45,5,3,83,0,,,,,,,,,,,session,1599.5212777999695,141.0,2.0,77.0,0.026883059299123206,5,0.5264548999257386,0.6590305999852717,1,1.4795914000133052,1.6514460999751464,1,1.1579295999836177,1.357743899920024,,,77.0,67.0,67809,64.0,
-152,152,90,5,4,84,7,,,,,,,,,,,session,1609.7280287999893,166.0,2.0,77.0,0.026883059299123206,2,1.011099600000307,1.1753292999928817,6,2.619463699986227,2.719648199970834,1,0.3099034000188112,0.46606969996355474,,,54.0,51.0,67809,64.0,
-152,152,0,5,5,85,5,,,,,,,,,,,session,1620.3925227000145,141.0,2.0,77.0,0.026883059299123206,2,0.9085314000258222,1.0732315999921411,0,0.5974736000644043,0.7809969000518322,1,0.32205469999462366,0.47261970001272857,,,70.0,70.0,67809,64.0,
152,152,45,5,6,86,2,,,,,,,,,,,session,1629.19307379995,134.0,2.0,77.0,0.026883059299123206,5,1.1627756000962108,1.3267672000220045,1,1.6687410000013188,1.8691148000070825,0,0.4031730000860989,0.5861739000538364,,,58.0,74.0,67809,64.0,
152,152,0,5,7,87,1,,,,,,,,,,,session,1639.0499328000005,154.0,2.0,77.0,0.026883059299123206,5,0.8045738000655547,1.0713101000292227,0,0.39854320010636,0.5655094000976533,0,2.4845704999752343,2.6957953000674024,,,77.0,61.0,67809,64.0,
-152,-152,-45,5,8,88,12,,,,,,,,,,,session,1650.059029600001,173.0,2.0,77.0,0.026883059299123206,3,0.8586269000079483,1.059685799991712,1,1.8123024000087753,1.926662900019437,1,1.4573722999775782,1.6573968000011519,,,54.0,67.0,67809,64.0,
152,-152,45,5,9,89,10,,,,,,,,,,,session,1661.4341127000516,147.0,2.0,77.0,0.026883059299123206,3,1.3779391999123618,1.6614521999144927,0,0.41337860003113747,0.5976880000671372,0,0.3520985000068322,0.5023811999708414,,,61.0,51.0,67809,64.0,
152,-152,-45,5,10,90,8,,,,,,,,,,,session,1670.375441799988,186.0,2.0,77.0,0.026883059299123206,5,1.3117861000355333,1.5294745999854058,1,1.246290999930352,1.461512199952267,0,0.41439289995469153,0.6298863999545574,,,70.0,51.0,67809,64.0,
-152,152,45,5,11,91,6,,,,,,,,,,,session,1680.9000611000229,134.0,2.0,77.0,0.026883059299123206,2,1.8131315999198705,1.996724999975413,7,2.049266599933617,2.1936470998916775,0,0.3214280999964103,0.5229458999820054,,,70.0,58.0,67809,64.0,
152,-152,0,5,12,92,9,,,,,,,,,,,session,1691.803950899979,160.0,2.0,77.0,0.026883059299123206,4,0.6432704000035301,0.8929988000309095,0,0.7585162000032142,0.9089347999542952,0,0.9231952999252826,1.1191598000004888,,,67.0,58.0,67809,64.0,
152,152,90,5,13,93,3,,,,,,,,,,,session,1701.409719599993,141.0,2.0,77.0,0.026883059299123206,4,1.4155904999934137,1.6333838999271393,0,0.5319776999531314,0.6965296999551356,0,0.7620325000025332,1.043682999908924,,,67.0,61.0,67809,64.0,
-152,-152,90,5,14,94,15,,,,,,,,,,,session,1711.055444000056,154.0,2.0,77.0,0.026883059299123206,3,1.031230799970217,1.2497623999370262,1,1.2996969999512658,1.4887428999645635,0,1.0800998999038711,1.2625485999742523,,,51.0,51.0,67809,64.0,
-152,152,-45,5,15,95,4,,,,,,,,,,,session,1721.1445689999964,134.0,2.0,77.0,0.026883059299123206,2,3.3145190998911858,3.5118259999435395,7,1.97823949996382,2.145267399959266,0,0.6778183999704197,0.8942308999830857,,,70.0,64.0,67809,64.0,
152,152,90,6,0,96,3,,,,,,,,,,,session,1733.7563498000382,186.0,2.0,77.0,0.026883059299123206,5,1.0866438000230119,1.210148600046523,1,1.2149927999125794,1.430028299917467,0,1.3752155000111088,1.5928732000757009,,,64.0,54.0,67809,64.0,
-152,152,0,6,1,97,5,,,,,,,,,,,session,1744.9635988000082,141.0,2.0,77.0,0.026883059299123206,4,1.95757660001982,2.2621488999575377,0,0.4615157999796793,0.6441106999991462,0,0.6869720999384299,0.8763330999063328,,,51.0,67.0,67809,64.0,
-152,152,-45,6,2,98,4,,,,,,,,,,,session,1754.8446381000103,147.0,2.0,77.0,0.026883059299123206,3,1.4266132999910042,1.691455699969083,0,0.6967505000066012,0.9115068000974134,0,1.9713960000080988,2.1698958000633866,,,51.0,54.0,67809,64.0,
-152,152,45,6,3,99,6,,,,,,,,,,,session,1765.5445423000492,160.0,2.0,77.0,0.026883059299123206,2,2.253691100049764,2.442131399991922,0,1.0286938999779522,1.2470257999375463,0,0.2964243000606075,0.5346546000801027,,,74.0,64.0,67809,64.0,
-152,152,45,6,3,99,6,,,materials/instructions\12_break.png,1776.3218823999632,1808.5248556999722,0,32.05231089994777,32.200975300045684,0.014021600014530122,32.20868369995151,,,,,,,,,,,,,,,,,,,,67809,64.0,
152,-152,0,6,4,100,9,,,,,,,,,,,session,1808.5408593999455,134.0,2.0,77.0,0.026883059299123206,4,0.6987437999341637,0.936313399928622,0,1.3631890999386087,1.4965965000446886,1,1.56237079994753,1.696640699985437,,,61.0,64.0,67809,64.0,
-152,152,90,6,5,101,7,,,,,,,,,,,session,1818.6553352000192,192.0,2.0,77.0,0.026883059299123206,2,0.7764200000092387,0.9276820999803022,6,1.128142699948512,1.3293649998959154,1,0.34834330005105585,0.5016499999910593,,,51.0,61.0,67809,64.0,
-152,-152,0,6,6,102,13,,,,,,,,,,,session,1828.3002217999892,141.0,2.0,77.0,0.026883059299123206,3,0.678187100100331,0.8600323999999091,0,0.7949906000867486,0.9766755000455305,1,0.7857738999882713,0.9496018999489024,,,74.0,70.0,67809,64.0,
-152,-152,90,6,7,103,15,,,,,,,,,,,session,1837.3989550999831,147.0,2.0,77.0,0.026883059299123206,4,2.6213263999670744,2.81942459999118,0,0.932642100029625,1.1777736999792978,0,0.3335551000200212,0.5911217000102624,,,54.0,74.0,67809,64.0,
152,152,45,6,8,104,2,,,,,,,,,,,session,1848.2826107,173.0,2.0,77.0,0.026883059299123206,5,0.9146387000801042,1.0480677000014111,7,0.8189623000798747,1.0142757000867277,1,0.7610440000426024,0.8952207999536768,,,64.0,67.0,67809,64.0,
152,152,0,6,9,105,1,,,,,,,,,,,session,1858.0332388000097,192.0,2.0,77.0,0.026883059299123206,5,0.5143007000442594,0.6454201999586076,0,1.2699701000237837,1.4346593000227585,1,1.3267736999550834,1.4776092999381945,,,61.0,74.0,67809,64.0,
152,-152,-45,6,10,106,8,,,,,,,,,,,session,1868.9049719000468,160.0,2.0,77.0,0.026883059299123206,5,1.1892944999272004,1.3739822999341413,1,1.5304230999900028,1.7117370000341907,0,1.380194199969992,1.5303769999882206,,,77.0,67.0,67809,64.0,
152,-152,45,6,11,107,10,,,,,,,,,,,session,1880.233709800057,192.0,2.0,77.0,0.026883059299123206,3,1.3763815999263898,1.6591153999324888,0,1.0601329000201076,1.37854020006489,0,0.49061570002231747,0.7240994999883696,,,58.0,77.0,67809,64.0,
-152,-152,45,6,12,108,14,,,,,,,,,,,session,1891.3602123999735,147.0,2.0,77.0,0.026883059299123206,5,1.9276765999384224,2.110675699892454,7,2.544652400072664,2.7612649999791756,0,0.45281100005377084,0.6092101000249386,,,67.0,70.0,67809,64.0,
152,-152,90,6,13,109,11,,,,,,,,,,,session,1903.240774499951,160.0,2.0,77.0,0.026883059299123206,4,0.5174972999375314,0.6869822998996824,6,1.1667992000002414,1.355757899931632,1,0.7868637000210583,0.9195372000103816,,,74.0,51.0,67809,64.0,
-152,-152,-45,6,14,110,12,,,,,,,,,,,session,1912.6238537000027,160.0,2.0,77.0,0.026883059299123206,3,0.8071201000129804,0.940800299984403,1,1.7987647999543697,1.9703828999772668,1,0.6147900000214577,0.7308653000509366,,,74.0,51.0,67809,64.0,
152,152,-45,6,15,111,0,,,,,,,,,,,session,1922.6985000000568,179.0,2.0,77.0,0.026883059299123206,2,2.632481300039217,2.797330699977465,0,0.3109062999719754,0.511353199952282,0,0.26246639993041754,0.46292279998306185,,,58.0,70.0,67809,64.0,
152,-152,45,7,0,112,10,,,,,,,,,,,session,1933.2416521999985,166.0,2.0,77.0,0.026883059299123206,4,1.9295078000286594,2.179955800063908,0,0.6732587000587955,0.8924797000363469,0,0.5994858000194654,0.7934422000544146,,,70.0,54.0,67809,64.0,
-152,152,-45,7,1,113,4,,,,,,,,,,,session,1943.6163101999555,166.0,2.0,77.0,0.026883059299123206,5,1.491463299957104,1.7606840999796987,1,2.230653699953109,2.431173700024374,0,0.6058355000568554,0.7416834000032395,,,51.0,70.0,67809,64.0,
-152,152,0,7,2,114,5,,,,,,,,,,,session,1954.9886274000164,160.0,2.0,77.0,0.026883059299123206,2,1.2459578999551013,1.5463301999261603,0,0.94788430002518,1.097028800053522,0,0.7788312000920996,0.9134801001055166,,,77.0,77.0,67809,64.0,
-152,-152,45,7,3,115,14,,,,,,,,,,,session,1965.41570100002,141.0,2.0,77.0,0.026883059299123206,4,1.0975235999794677,1.3471098999725655,7,1.3936479999683797,1.5605516999494284,0,1.1764603001065552,1.3094301000237465,,,58.0,51.0,67809,64.0,
152,152,45,7,4,116,2,,,,,,,,,,,session,1975.6222724999534,186.0,2.0,77.0,0.026883059299123206,5,1.3183458999264985,1.4547004000050947,7,1.4447642000159249,1.5939942999975756,0,0.7107411000179127,0.7776776999235153,,,51.0,74.0,67809,64.0,
152,152,-45,7,5,117,0,,,,,,,,,,,session,1986.51518820005,160.0,2.0,77.0,0.026883059299123206,4,1.3093992999056354,1.56393169995863,0,0.8599794000620022,1.059399600024335,0,1.4418365999590605,1.6420669999206439,,,54.0,51.0,67809,64.0,
-152,-152,90,7,6,118,15,,,,,,,,,,,session,1996.9242000000086,166.0,2.0,77.0,0.026883059299123206,4,1.1880524000152946,1.4204107000259683,7,1.7000703000230715,1.8499468000372872,0,2.5939907000865787,2.7056426000781357,,,74.0,70.0,67809,64.0,
-152,152,90,7,7,119,7,,,,,,,,,,,session,2009.851312899962,141.0,2.0,77.0,0.026883059299123206,5,1.9903860000194982,2.1398367999354377,1,1.4623551000840962,1.6348647000268102,0,0.38468330004252493,0.5295788999646902,,,74.0,70.0,67809,64.0,
-152,152,90,7,7,119,7,,,materials/instructions\12_break.png,2020.70830129995,2061.0673949000193,0,40.19040960003622,40.357207800028846,0.01405450003221631,40.36511660006363,,,,,,,,,,,,,,,,,,,,67809,64.0,
-152,-152,-45,7,8,120,12,,,,,,,,,,,session,2061.0835984000005,154.0,2.0,77.0,0.026883059299123206,3,0.8999632999766618,0.9030187999596819,1,1.7459759999765083,1.9141007999423891,1,0.32927480002399534,0.529456999967806,,,51.0,64.0,67809,64.0,
152,-152,-45,7,9,121,8,,,,,,,,,,,session,2070.5620065999683,186.0,2.0,77.0,0.026883059299123206,4,0.8521925000241026,1.0061012000078335,1,1.3324611000716686,1.5136396000161767,1,0.31943380006123334,0.500345200067386,,,67.0,51.0,67809,64.0,
152,152,0,7,10,122,1,,,,,,,,,,,session,2080.3874180000275,179.0,2.0,77.0,0.026883059299123206,2,1.6935795999597758,1.8939330999273807,1,0.5416306999977678,0.8018825999461114,0,0.379023400018923,0.5962533999700099,,,70.0,61.0,67809,64.0,
-152,152,45,7,11,123,6,,,,,,,,,,,session,2090.729035699973,134.0,2.0,77.0,0.026883059299123206,2,3.7005463999230415,3.9840669999830425,0,0.42794089997187257,0.6288307999493554,0,0.3925944999791682,0.6262182000791654,,,51.0,70.0,67809,64.0,
152,152,90,7,12,124,3,,,,,,,,,,,session,2101.792505700025,160.0,2.0,77.0,0.026883059299123206,5,1.0602706000208855,1.260274300002493,6,0.9328348999843001,1.103813499910757,0,0.6325100000249222,0.8484277999959886,,,64.0,58.0,67809,64.0,
152,-152,90,7,13,125,11,,,,,,,,,,,session,2111.4655239999993,141.0,2.0,77.0,0.026883059299123206,4,0.8755546000320464,1.0428684999933466,6,0.7065410999348387,0.8231030999450013,1,0.4112729999469593,0.539280500030145,,,74.0,51.0,67809,64.0,
-152,-152,0,7,14,126,13,,,,,,,,,,,session,2119.9018884999678,192.0,2.0,77.0,0.026883059299123206,4,2.2047417000867426,2.436148300068453,0,0.4105192000279203,0.6092496999772266,0,0.5155897000804543,0.6765043999766931,,,70.0,74.0,67809,64.0,
152,-152,0,7,15,127,9,,,,,,,,,,,session,2131.0581763000228,160.0,2.0,77.0,0.026883059299123206,4,0.9239329999545589,1.1770319999195635,0,0.9488111999817193,1.0990308999316767,0,0.8488132000202313,1.0377545000519603,,,51.0,77.0,67809,64.0,
152,152,45,8,0,128,2,,,,,,,,,,,session,2140.8729952999856,154.0,2.0,77.0,0.026883059299123206,5,1.196702599991113,1.3762024999596179,7,1.989777300041169,2.1293499999446794,0,0.7134074000641704,0.9470085999928415,,,67.0,58.0,67809,64.0,
-152,152,0,8,1,129,5,,,,,,,,,,,session,2151.774974100059,179.0,2.0,77.0,0.026883059299123206,4,1.010448000044562,1.2616592000704259,7,1.546679399907589,1.7159558999119326,0,0.5840362999588251,0.849741299985908,,,51.0,64.0,67809,64.0,
-152,152,45,8,2,130,6,,,,,,,,,,,session,2162.236332600005,166.0,2.0,77.0,0.026883059299123206,3,1.5442149000009522,1.7583880999591202,0,0.3201765000121668,0.5050380000611767,0,0.4244211999466643,0.5751632999163121,,,67.0,74.0,67809,64.0,
-152,-152,-45,8,3,131,12,,,,,,,,,,,session,2171.95724030002,141.0,2.0,77.0,0.026883059299123206,5,1.4946521000238135,1.6646351999370381,0,0.39571389998309314,0.5625702999532223,0,0.7970783000346273,0.9480946999974549,,,67.0,74.0,67809,64.0,
152,-152,-45,8,4,132,8,,,,,,,,,,,session,2181.546638599946,141.0,2.0,77.0,0.026883059299123206,4,1.1279603999573737,1.3283150000497699,1,1.69418690004386,1.8275305000133812,0,1.160619799979031,1.3151242000749335,,,61.0,67.0,67809,64.0,
152,-152,0,8,5,133,9,,,,,,,,,,,session,2192.1773952000076,173.0,2.0,77.0,0.026883059299123206,4,0.6140020999591798,0.7929765000008047,0,1.1580154000548646,1.3140479000285268,1,0.49874990002717823,0.6867222000146285,,,54.0,51.0,67809,64.0,
-152,152,90,8,6,134,7,,,,,,,,,,,session,2201.331047900021,141.0,2.0,77.0,0.026883059299123206,3,1.4109329999191687,1.744173299986869,0,0.5618945999303833,0.7770359999267384,0,0.87854469998274,1.0595112999435514,,,64.0,67.0,67809,64.0,
-152,152,-45,8,7,135,4,,,,,,,,,,,session,2211.200679600006,160.0,2.0,77.0,0.026883059299123206,5,1.2761117999907583,1.426052700029686,0,0.423241899930872,0.5700796999735758,0,0.34389060002285987,0.5184829999925569,,,58.0,70.0,67809,64.0,
-152,-152,45,8,8,136,14,,,,,,,,,,,session,2220.238432300044,179.0,2.0,77.0,0.026883059299123206,5,1.476163300103508,1.6255217000143602,1,1.3468891000375152,1.530369900050573,0,0.3435426000505686,0.5101289000594988,,,70.0,54.0,67809,64.0,
152,152,0,8,9,137,1,,,,,,,,,,,session,2230.550916700042,160.0,2.0,77.0,0.026883059299123206,2,1.6746336000505835,1.8750582999782637,1,1.865188500029035,2.0192369000287727,0,0.8750097000738606,1.1251792000839487,,,67.0,58.0,67809,64.0,
152,152,-45,8,10,138,0,,,,,,,,,,,session,2242.0904050000245,186.0,2.0,77.0,0.026883059299123206,5,0.37645290000364184,0.5307917000027373,1,0.8304564000573009,1.0470459000207484,0,0.7968458000104874,0.9358732999535277,,,70.0,67.0,67809,64.0,
-152,-152,0,8,11,139,13,,,,,,,,,,,session,2251.5720186999533,179.0,2.0,77.0,0.026883059299123206,3,0.6795874000526965,0.8789933000225574,7,1.4135813999455422,1.5618606999050826,1,0.2637576999841258,0.4305521999485791,,,58.0,77.0,67809,64.0,
-152,-152,0,8,11,139,13,,,materials/instructions\12_break.png,2261.506924599991,2304.9881722000428,0,43.27786809997633,43.47925909992773,0.01545040006749332,43.48554719996173,,,,,,,,,,,,,,,,,,,,67809,64.0,
152,152,90,8,12,140,3,,,,,,,,,,,session,2305.0029134999495,154.0,2.0,77.0,0.026883059299123206,5,0.9251026000129059,1.07518110005185,6,0.371510700089857,0.48927650006953627,0,0.5327982000308111,0.7362852999940515,,,61.0,61.0,67809,64.0,
-152,-152,90,8,13,141,15,,,,,,,,,,,session,2313.6473866000306,166.0,2.0,77.0,0.026883059299123206,3,1.1298711000708863,1.3448442000662908,0,0.3542258000234142,0.5042055000085384,0,2.409764699987136,2.599616799969226,,,74.0,64.0,67809,64.0,
152,-152,90,8,14,142,11,,,,,,,,,,,session,2324.9970328999916,166.0,2.0,77.0,0.026883059299123206,3,1.1300265999743715,1.3775653999764472,0,1.0444692999590188,1.2923237999202684,0,0.5568697999697179,0.7900921000400558,,,58.0,54.0,67809,64.0,
152,-152,45,8,15,143,10,,,,,,,,,,,session,2334.9138429999584,134.0,2.0,77.0,0.026883059299123206,4,1.2011586999287829,1.353654499980621,7,1.4346386999823153,1.567373500089161,0,1.4817858999595046,1.651599399978295,,,64.0,67.0,67809,64.0,
-152,-152,90,9,0,144,15,,,,,,,,,,,session,2345.7444370000158,147.0,2.0,77.0,0.026883059299123206,5,1.1912823000457138,1.391023200005293,7,1.362782100099139,1.5292137000942603,0,0.3261081000091508,0.46415200002957135,,,74.0,77.0,67809,64.0,
-152,152,45,9,1,145,6,,,,,,,,,,,session,2355.8989796000533,141.0,2.0,77.0,0.026883059299123206,2,1.4499054999323562,1.6444998999359086,1,1.1275978999910876,1.2940480000106618,0,0.34690860006958246,0.4812766000395641,,,58.0,51.0,67809,64.0,
152,-152,90,9,2,146,11,,,,,,,,,,,session,2365.321495400043,134.0,2.0,77.0,0.026883059299123206,4,1.0058760000392795,1.2232531000627205,6,0.7374248000560328,0.9233525000745431,1,1.486402599955909,1.6364874999271706,,,61.0,67.0,67809,64.0,
152,152,45,9,3,147,2,,,,,,,,,,,session,2375.1277799999807,147.0,2.0,77.0,0.026883059299123206,5,1.1228544999612495,1.2602646999293938,7,1.1146188999991864,1.2657843999331817,1,0.3331014000577852,0.49996210006065667,,,54.0,58.0,67809,64.0,
-152,-152,45,9,4,148,14,,,,,,,,,,,session,2384.2026898999466,166.0,2.0,77.0,0.026883059299123206,3,0.7932146999519318,1.007581099984236,7,1.4805281999288127,1.633599399938248,1,1.7438558998983353,1.930974599905312,,,70.0,67.0,67809,64.0,
152,-152,0,9,5,149,9,,,,,,,,,,,session,2395.6977820999455,160.0,2.0,77.0,0.026883059299123206,4,0.6006360000465065,0.818316200049594,0,0.41954939998686314,0.6373787999618798,1,2.781291500083171,2.9587991000153124,,,74.0,51.0,67809,64.0,
-152,-152,-45,9,6,150,12,,,,,,,,,,,session,2406.585794799961,147.0,2.0,77.0,0.026883059299123206,3,1.5627163000172004,1.7984176999889314,7,1.8565915999934077,1.9749533999711275,0,0.47560199990402907,0.6760373999131843,,,58.0,54.0,67809,64.0,
-152,152,90,9,7,151,7,,,,,,,,,,,session,2417.1278055000585,173.0,2.0,77.0,0.026883059299123206,4,1.2813753000227734,1.4583489999640733,0,0.26799690001644194,0.3783444999717176,0,0.24601939995773137,0.4486769000068307,,,51.0,54.0,67809,64.0,
152,152,0,9,8,152,1,,,,,,,,,,,session,2425.7215090000536,160.0,2.0,77.0,0.026883059299123206,2,1.836681199958548,2.0701328000286594,0,0.011408700025640428,0.013320600031875074,0,0.44035229994915426,0.6724623999325559,,,64.0,77.0,67809,64.0,
-152,152,-45,9,9,153,4,,,,,,,,,,,session,2435.224354499951,147.0,2.0,77.0,0.026883059299123206,4,1.0389968999661505,1.3226615999592468,1,1.5603455000091344,1.7608867000089958,0,0.3648685000371188,0.5299995000241324,,,64.0,51.0,67809,64.0,
-152,-152,0,9,10,154,13,,,,,,,,,,,session,2444.899050200009,192.0,2.0,77.0,0.026883059299123206,4,1.6052895999746397,1.917598900035955,1,2.297616200055927,2.480636000051163,0,0.3011699999915436,0.4731764999451116,,,67.0,70.0,67809,64.0,
152,152,-45,9,11,155,0,,,,,,,,,,,session,2457.0604753999505,141.0,2.0,77.0,0.026883059299123206,3,1.5276016999268904,1.799459100002423,7,1.2924114000052214,1.432472899905406,0,0.3083168000448495,0.5581668999511749,,,54.0,58.0,67809,64.0,
152,-152,-45,9,12,156,8,,,,,,,,,,,session,2466.8153252999764,186.0,2.0,77.0,0.026883059299123206,4,1.0108073999872431,1.2153621999314055,6,2.6342682000249624,2.7565816999413073,0,2.860714199952781,3.087946599931456,,,54.0,54.0,67809,64.0,
-152,152,0,9,13,157,5,,,,,,,,,,,session,2480.6426955000497,147.0,2.0,77.0,0.026883059299123206,3,1.5372735999990255,1.7564558000303805,0,0.39286660007201135,0.5769466999918222,0,0.7654577000066638,0.965502499951981,,,64.0,54.0,67809,64.0,
152,152,90,9,14,158,3,,,,,,,,,,,session,2489.9327326000202,154.0,2.0,77.0,0.026883059299123206,5,0.7310325999278575,0.8750155000016093,6,0.3311297999462113,0.4643071999307722,1,0.4091850999975577,0.5229934999952093,,,61.0,51.0,67809,64.0,
152,-152,45,9,15,159,10,,,,,,,,,,,session,2497.9349942000117,147.0,2.0,77.0,0.026883059299123206,3,1.8262964999303222,2.1161832999205217,0,0.3433134000515565,0.5154796000570059,0,0.5996469999663532,0.8163603999419138,,,74.0,54.0,67809,64.0,
152,-152,45,9,15,159,10,,,materials/instructions\12_break.png,2507.6510419000406,2553.7944753000047,0,45.961383800022304,46.14140459999908,0.010399800026789308,46.15420820005238,,,,,,,,,,,,,,,,,,,,67809,64.0,
-152,-152,90,10,0,160,15,,,,,,,,,,,session,2553.816275499994,173.0,2.0,77.0,0.026883059299123206,3,1.4861164999892935,1.80503609997686,1,1.0105533000314608,1.2219261000864208,0,0.2968997999560088,0.49701009993441403,,,51.0,67.0,67809,64.0,
152,152,0,10,1,161,1,,,,,,,,,,,session,2563.9563221000135,186.0,2.0,77.0,0.026883059299123206,5,0.5095823999727145,0.6594454000005499,0,0.4297246999340132,0.6298720999620855,1,0.3478236000519246,0.4822666000109166,,,74.0,58.0,67809,64.0,
-152,-152,45,10,2,162,14,,,,,,,,,,,session,2572.792994700023,141.0,2.0,77.0,0.026883059299123206,3,1.756226300029084,1.974209800013341,1,1.2976199999684468,1.4594572000205517,0,0.34450749994721264,0.4924614999908954,,,77.0,64.0,67809,64.0,
152,-152,90,10,3,163,11,,,,,,,,,,,session,2583.1678569000214,173.0,2.0,77.0,0.026883059299123206,4,1.7196044999873266,1.9177493000170216,0,0.5301811000099406,0.7491727999877185,0,0.3501369000878185,0.5501496000215411,,,54.0,54.0,67809,64.0,
-152,152,0,10,4,164,5,,,,,,,,,,,session,2592.848955100053,141.0,2.0,77.0,0.026883059299123206,5,1.3199475000146776,1.4933528000256047,1,1.1000674000242725,1.396705700084567,0,0.30836139991879463,0.5085128999780864,,,61.0,77.0,67809,64.0,
152,-152,-45,10,5,165,8,,,,,,,,,,,session,2602.5511864,192.0,2.0,77.0,0.026883059299123206,4,0.42208809999283403,0.6406037999549881,1,1.0941264999564737,1.280708699952811,0,0.37754770007450134,0.5793745000846684,,,70.0,58.0,67809,64.0,
-152,152,90,10,6,166,7,,,,,,,,,,,session,2612.1783810999477,173.0,2.0,77.0,0.026883059299123206,2,4.198914899956435,4.415787099977024,0,0.899415299994871,1.116143099963665,0,1.6109962000045925,1.7936647000024095,,,54.0,70.0,67809,64.0,
-152,152,-45,10,7,167,4,,,,,,,,,,,session,2626.035956699983,179.0,2.0,77.0,0.026883059299123206,4,1.357986499904655,1.5724150999449193,7,1.9469287999672815,2.0969416999723762,0,0.26003340003080666,0.4624494999879971,,,67.0,70.0,67809,64.0,
-152,-152,0,10,8,168,13,,,,,,,,,,,session,2637.3123391000554,179.0,2.0,77.0,0.026883059299123206,2,1.6032478000270203,1.7856440000468865,0,0.3356015000026673,0.49665359989739954,0,0.3010095999343321,0.4864071999909356,,,54.0,64.0,67809,64.0,
152,152,-45,10,9,169,0,,,,,,,,,,,session,2646.790970799979,154.0,2.0,77.0,0.026883059299123206,4,1.9804966000374407,2.2119263000786304,7,1.4470666999695823,1.6108620999148116,0,1.1199042999651283,1.2801314999815077,,,74.0,58.0,67809,64.0,
-152,152,45,10,10,170,6,,,,,,,,,,,session,2658.443620300037,147.0,2.0,77.0,0.026883059299123206,4,1.5533729000017047,1.7177125999005511,0,0.38240680005401373,0.5676942999707535,0,0.34960339998360723,0.5667286000680178,,,77.0,70.0,67809,64.0,
152,152,90,10,11,171,3,,,,,,,,,,,session,2668.024655999965,173.0,2.0,77.0,0.026883059299123206,4,1.0045471000485122,1.243836099980399,7,1.9873423000099137,2.147345600067638,0,0.8571814999449998,1.0777818999486044,,,54.0,54.0,67809,64.0,
152,152,45,10,12,172,2,,,,,,,,,,,session,2679.0441430000355,166.0,2.0,77.0,0.026883059299123206,5,1.0014217999996617,1.0662699999520555,7,1.3778797999257222,1.5281986999325454,0,0.27391810005065054,0.44208439998328686,,,64.0,51.0,67809,64.0,
152,-152,0,10,13,173,9,,,,,,,,,,,session,2688.4528355000075,179.0,2.0,77.0,0.026883059299123206,4,1.5524798999540508,1.7862088999245316,1,0.8790419000433758,1.0655636000446975,0,0.8603263000259176,1.0458678000140935,,,74.0,51.0,67809,64.0,
152,-152,45,10,14,174,10,,,,,,,,,,,session,2699.176925000036,166.0,2.0,77.0,0.026883059299123206,2,3.3264586000004783,3.4805325999623165,1,2.895727699971758,3.0661185999633744,0,1.2309695000294596,1.3758471000473946,,,54.0,67.0,67809,64.0,
-152,-152,-45,10,15,175,12,,,,,,,,,,,session,2713.467496700003,141.0,2.0,77.0,0.026883059299123206,3,1.8990458000916988,2.1368791999993846,1,2.160887200036086,2.325616499991156,0,0.9685132999438792,1.2229031999595463,,,64.0,54.0,67809,64.0,
152,152,-45,11,0,176,0,,,,,,,,,,,session,2725.230566399987,147.0,2.0,77.0,0.026883059299123206,5,0.7151866999920458,0.8632649999344721,1,1.1121026000473648,1.3123609999893233,1,0.3374596000649035,0.5228647000622004,,,70.0,64.0,67809,64.0,
152,-152,0,11,1,177,9,,,,,,,,,,,session,2734.334991600015,173.0,2.0,77.0,0.026883059299123206,3,1.4244042000500485,1.778964800061658,1,3.2947173999855295,3.4260418999474496,0,0.7386233999859542,0.9717979000415653,,,77.0,74.0,67809,64.0,
152,152,0,11,2,178,1,,,,,,,,,,,session,2747.6298126999754,160.0,2.0,77.0,0.026883059299123206,5,0.6274924000026658,0.7774648999329656,0,0.3642056999960914,0.5363637999398634,1,0.47773429995868355,0.6486805999884382,,,67.0,74.0,67809,64.0,
-152,152,-45,11,3,179,4,,,,,,,,,,,session,2756.406776100048,173.0,2.0,77.0,0.026883059299123206,2,1.0753636000445113,1.2422584000742063,1,1.0150355999357998,1.2151836999692023,0,0.35957430000416934,0.5452610000502318,,,51.0,51.0,67809,64.0,
-152,152,-45,11,3,179,4,,,materials/instructions\12_break.png,2765.8772611999884,2811.973795900005,0,45.9162111999467,46.09455189993605,0.013607400003820658,46.109356299974024,,,,,,,,,,,,,,,,,,,,67809,64.0,
-152,152,0,11,4,180,5,,,,,,,,,,,session,2811.9969133000122,147.0,2.0,77.0,0.026883059299123206,3,1.1220841000322253,1.372259399970062,7,2.8680417999858037,3.022295199916698,0,0.39132419996894896,0.6090215999865904,,,67.0,70.0,67809,64.0,
-152,152,45,11,5,181,6,,,,,,,,,,,session,2823.537565900013,147.0,2.0,77.0,0.026883059299123206,2,2.6440952999982983,2.7829029000131413,7,1.9482323999982327,2.146299700019881,0,0.33440209995023906,0.4849779000505805,,,77.0,67.0,67809,64.0,
-152,-152,0,11,6,182,13,,,,,,,,,,,session,2835.5263052999508,160.0,2.0,77.0,0.026883059299123206,3,0.6493264000164345,0.8492721000220627,0,0.326365299988538,0.4598941000876948,1,0.3360471000196412,0.5037458000006154,,,70.0,74.0,67809,64.0,
152,152,45,11,7,183,2,,,,,,,,,,,session,2844.187785499962,134.0,2.0,77.0,0.026883059299123206,5,1.5095204000826925,1.7653464000904933,0,0.3808504999615252,0.5354443000396714,0,0.2955004000104964,0.4793365999357775,,,61.0,67.0,67809,64.0,
152,152,90,11,8,184,3,,,,,,,,,,,session,2853.144478900009,141.0,2.0,77.0,0.026883059299123206,2,1.8110492000123486,2.0092480999883264,0,0.36833349999506027,0.528292499948293,0,0.49612219992559403,0.6474024999188259,,,70.0,74.0,67809,64.0,
152,-152,90,11,9,185,11,,,,,,,,,,,session,2862.8021571000572,173.0,2.0,77.0,0.026883059299123206,4,0.4871005000313744,0.6615408000070602,6,1.6462029999820516,1.7795212999917567,1,0.6095364999491721,0.7648852999554947,,,67.0,77.0,67809,64.0,
-152,152,90,11,10,186,7,,,,,,,,,,,session,2873.1280216999585,166.0,2.0,77.0,0.026883059299123206,2,1.004617500002496,1.2159413000335917,6,1.1572463000193238,1.3441060000332072,1,0.44153529999312013,0.6431166999973357,,,61.0,54.0,67809,64.0,
152,-152,-45,11,11,187,8,,,,,,,,,,,session,2882.605658399989,186.0,2.0,77.0,0.026883059299123206,4,1.5102204999420792,1.743706899927929,1,1.5135609999997541,1.6609311000211164,0,0.4256760999560356,0.6106362999416888,,,58.0,54.0,67809,64.0,
-152,-152,-45,11,12,188,12,,,,,,,,,,,session,2893.3071724999463,147.0,2.0,77.0,0.026883059299123206,5,2.118908799951896,2.318219600012526,1,0.31286149995867163,0.47974159999284893,0,0.359165099915117,0.5456806999864057,,,54.0,74.0,67809,64.0,
152,-152,45,11,13,189,10,,,,,,,,,,,session,2902.8350276000565,134.0,2.0,77.0,0.026883059299123206,3,1.3951765999663621,1.662586300051771,0,0.010704500018619001,0.04070240003056824,0,0.29395339998882264,0.5607243000995368,,,74.0,61.0,67809,64.0,
-152,-152,90,11,14,190,15,,,,,,,,,,,session,2911.3550557000563,141.0,2.0,77.0,0.026883059299123206,5,1.0356987999984995,1.213110200013034,7,1.9225542999338359,2.0736131999874488,0,0.28319079999346286,0.4397685000440106,,,67.0,54.0,67809,64.0,
-152,-152,45,11,15,191,14,,,,,,,,,,,session,2921.3193532000296,141.0,2.0,77.0,0.026883059299123206,2,3.262768500018865,3.446125000016764,1,1.1752586000366136,1.309609500109218,0,0.3696044000098482,0.5362506000092253,,,70.0,70.0,67809,64.0,
-152,-152,-45,12,0,192,12,,,,,,,,,,,session,2933.0711035999702,173.0,2.0,77.0,0.026883059299123206,3,1.302209599991329,1.516265599988401,1,2.168787300004624,2.338631800026633,0,1.3188089000759646,1.5367213999852538,,,61.0,61.0,67809,64.0,
152,-152,-45,12,1,193,8,,,,,,,,,,,session,2945.186109000002,179.0,2.0,77.0,0.026883059299123206,2,2.159204200026579,2.3276805999921635,7,3.657442900002934,3.7738407000433654,0,0.6598439000081271,0.8923681000014767,,,70.0,54.0,67809,64.0,
-152,-152,45,12,2,194,14,,,,,,,,,,,session,2959.0556419000495,141.0,2.0,77.0,0.026883059299123206,3,1.2438524999888614,1.4275942000094801,1,1.6401747999479994,1.7832950999727473,1,0.46569079998880625,0.6463772000279278,,,58.0,51.0,67809,64.0,
-152,152,0,12,3,195,5,,,,,,,,,,,session,2968.630685799988,134.0,2.0,77.0,0.026883059299123206,3,1.2367787000257522,1.4707749000517651,0,3.1439466000301763,3.3962993000168353,0,0.02466859994456172,0.2632049999665469,,,58.0,64.0,67809,64.0,
152,152,45,12,4,196,2,,,,,,,,,,,session,2979.8403373999754,160.0,2.0,77.0,0.026883059299123206,2,3.9232023999793455,4.104869400034659,0,0.011032900074496865,0.45254369999747723,0,0.5526895000366494,1.016632299986668,,,51.0,64.0,67809,64.0,
-152,-152,0,12,5,197,13,,,,,,,,,,,session,2991.6272738999687,192.0,2.0,77.0,0.026883059299123206,3,1.3581903000595048,1.6083867000415921,7,1.546216499991715,1.7086526000639424,0,0.7367166000185534,0.9870622999733314,,,61.0,58.0,67809,64.0,
-152,152,-45,12,6,198,4,,,,,,,,,,,session,3002.924590099952,134.0,2.0,77.0,0.026883059299123206,5,1.3904017000459135,1.5446155000245199,7,1.7769866000162438,1.8776319000171497,0,0.5963508998975158,0.8127636999124661,,,74.0,67.0,67809,64.0,
152,152,-45,12,7,199,0,,,,,,,,,,,session,3013.332150400034,179.0,2.0,77.0,0.026883059299123206,4,2.6376049999380484,2.821912999963388,1,0.7960160999791697,0.9902138999896124,0,0.8464304999215528,1.0468318000202999,,,51.0,51.0,67809,64.0,
152,152,-45,12,7,199,0,,,materials/instructions\12_break.png,3024.823829300003,3070.855727700051,0,45.780074999900535,46.03002329997253,0.014384199981577694,46.036743200034834,,,,,,,,,,,,,,,,,,,,67809,64.0,
152,152,0,12,8,200,1,,,,,,,,,,,session,3070.870950500015,141.0,2.0,77.0,0.026883059299123206,5,0.3893247999949381,0.4893385999603197,0,0.7954632999608293,0.959994800039567,1,0.4134667000034824,0.5814650999382138,,,54.0,54.0,67809,64.0,
152,152,90,12,9,201,3,,,,,,,,,,,session,3078.817302200012,173.0,2.0,77.0,0.026883059299123206,3,1.8541094000684097,2.0557152000255883,0,0.30730520002543926,0.4436575999716297,0,0.35205210000276566,0.516828199964948,,,70.0,64.0,67809,64.0,
152,-152,0,12,10,202,9,,,,,,,,,,,session,3088.9039671999635,179.0,2.0,77.0,0.026883059299123206,3,2.6042904999339953,2.892114899936132,7,1.0643754999618977,1.1831059999531135,0,0.46121589990798384,0.611963199917227,,,74.0,70.0,67809,64.0,
-152,152,90,12,11,203,7,,,,,,,,,,,session,3100.5834317000117,160.0,2.0,77.0,0.026883059299123206,4,1.0724293000530452,1.261810600059107,0,0.3922480000182986,0.53963220003061,0,1.8432109999703243,1.9818654999835417,,,67.0,58.0,67809,64.0,
-152,-152,90,12,12,204,15,,,,,,,,,,,session,3110.962689899956,154.0,2.0,77.0,0.026883059299123206,5,1.3212995999492705,1.4714079999830574,0,2.4130994000006467,2.6177544000092894,0,0.46821970003657043,0.6632005999563262,,,77.0,58.0,67809,64.0,
152,-152,90,12,13,205,11,,,,,,,,,,,session,3122.1811664999695,166.0,2.0,77.0,0.026883059299123206,3,1.614650100003928,1.869694200111553,6,1.7316804999718443,1.9168346000369638,0,0.5817751000868157,0.7527207999955863,,,70.0,54.0,67809,64.0,
-152,152,45,12,14,206,6,,,,,,,,,,,session,3133.179436999955,192.0,2.0,77.0,0.026883059299123206,2,1.3321977999294177,1.48352959996555,7,1.5605011000297964,1.7340515999821946,1,0.3288878999883309,0.44482330000028014,,,54.0,51.0,67809,64.0,
152,-152,45,12,15,207,10,,,,,,,,,,,session,3143.313016799977,179.0,2.0,77.0,0.026883059299123206,4,2.8636057999683544,3.112295600003563,6,1.495123100001365,1.6575782999861985,0,0.37943780003115535,0.49751970008946955,,,51.0,51.0,67809,64.0,
152,-152,-45,13,0,208,8,,,,,,,,,,,session,3155.0738471000222,147.0,2.0,77.0,0.026883059299123206,4,1.0813565000426024,1.2482804000610486,7,2.2296761000761762,2.3603392000077292,0,1.0295351999811828,1.2613314999034628,,,77.0,61.0,67809,64.0,
-152,-152,90,13,1,209,15,,,,,,,,,,,session,3166.2636608999455,179.0,2.0,77.0,0.026883059299123206,3,4.115235300036147,4.331756800063886,6,1.4301342000253499,1.5636220999294892,0,0.7299156999215484,0.8632282998878509,,,67.0,67.0,67809,64.0,
-152,152,-45,13,2,210,4,,,,,,,,,,,session,3179.9749732000055,179.0,2.0,77.0,0.026883059299123206,4,1.3118815999478102,1.4957097999285907,6,1.5391837999923155,1.6713743000291288,0,2.945673800073564,3.031288600061089,,,58.0,64.0,67809,64.0,
-152,152,0,13,3,211,5,,,,,,,,,,,session,3192.837918199948,154.0,2.0,77.0,0.026883059299123206,2,0.9882377999601886,1.1079890999244526,7,2.0777999999700114,2.2125220999587327,1,0.3082295999629423,0.5137071999488398,,,67.0,77.0,67809,64.0,
-152,-152,0,13,4,212,13,,,,,,,,,,,session,3203.446290199994,186.0,2.0,77.0,0.026883059299123206,5,2.1483537999447435,2.3014373999321833,1,1.4361837999895215,1.5790033000521362,0,0.5961761999642476,0.7463431999785826,,,74.0,77.0,67809,64.0,
-152,-152,-45,13,5,213,12,,,,,,,,,,,session,3215.5034360999707,134.0,2.0,77.0,0.026883059299123206,3,2.213944899966009,2.4455270000034943,6,4.621650099987164,4.835827499977313,0,0.3925475000869483,0.6279638000996783,,,70.0,67.0,67809,64.0,
-152,152,45,13,6,214,6,,,,,,,,,,,session,3229.6808843000326,173.0,2.0,77.0,0.026883059299123206,2,1.6980499000055715,1.8487899999599904,0,0.010808799997903407,0.2254467000020668,0,0.17790739994961768,0.4120755000039935,,,70.0,61.0,67809,64.0,
152,152,0,13,7,215,1,,,,,,,,,,,session,3239.0220539000584,179.0,2.0,77.0,0.026883059299123206,3,2.860721300006844,3.0607560999924317,0,0.40214699995703995,0.5353363000322133,0,0.7458977000787854,0.9010727000422776,,,70.0,74.0,67809,64.0,
152,152,45,13,8,216,2,,,,,,,,,,,session,3250.66882599995,179.0,2.0,77.0,0.026883059299123206,4,1.6779091999633238,1.8927601999603212,1,1.2361051000189036,1.4034994000103325,0,0.36941549996845424,0.4860950999427587,,,74.0,74.0,67809,64.0,
152,152,90,13,9,217,3,,,,,,,,,,,session,3261.738605199964,173.0,2.0,77.0,0.026883059299123206,5,1.1817619999637827,1.350066400016658,0,0.42710680002346635,0.6299186999676749,0,0.6128086000680923,0.7799365000100806,,,58.0,54.0,67809,64.0,
152,152,-45,13,10,218,0,,,,,,,,,,,session,3271.012441399973,173.0,2.0,77.0,0.026883059299123206,3,1.359349500038661,1.541868400061503,0,1.2415504000382498,1.3291266999440268,0,1.2714851000346243,1.4396510999649763,,,74.0,61.0,67809,64.0,
152,-152,90,13,11,219,11,,,,,,,,,,,session,3282.2893680999987,141.0,2.0,77.0,0.026883059299123206,3,1.417462700046599,1.6172540000407025,0,0.31445619999431074,0.49766300001647323,0,0.47381690004840493,0.6643690000055358,,,51.0,74.0,67809,64.0,
152,-152,90,13,11,219,11,,,materials/instructions\12_break.png,3291.296935899998,3428.0271795999724,0,136.54491479997523,136.7282614998985,0.011200400069355965,136.73606160003692,,,,,,,,,,,,,,,,,,,,67809,64.0,
-152,-152,45,13,12,220,14,,,,,,,,,,,session,3428.0435991999693,166.0,2.0,77.0,0.026883059299123206,5,1.5347729999339208,1.7049054999370128,7,1.3616552000166848,1.5248257000930607,0,0.3938261999282986,0.6439297000179067,,,67.0,67.0,67809,64.0,
152,-152,0,13,13,221,9,,,,,,,,,,,session,3438.7733845999464,141.0,2.0,77.0,0.026883059299123206,4,0.7203401000006124,0.9353587999939919,0,0.8814010999631137,1.0774772999575362,1,0.29419160005636513,0.4462795000290498,,,77.0,64.0,67809,64.0,
152,-152,45,13,14,222,10,,,,,,,,,,,session,3447.5812851999654,166.0,2.0,77.0,0.026883059299123206,4,0.7615285000065342,0.9251429000869393,7,1.4461789999622852,1.5734615999972448,1,0.3285883000353351,0.49341480003204197,,,74.0,64.0,67809,64.0,
-152,152,90,13,15,223,7,,,,,,,,,,,session,3457.3517310000025,179.0,2.0,77.0,0.026883059299123206,2,1.2965617999434471,1.5143861999968067,7,1.237433600006625,1.3551863000029698,0,0.5819747999776155,0.6946364999748766,,,67.0,51.0,67809,64.0,
152,152,45,14,0,224,2,,,,,,,,,,,session,3467.5798553000204,173.0,2.0,77.0,0.026883059299123206,5,1.3112815999193117,1.4426461999537423,1,1.0662313998909667,1.1805717999814078,0,1.9494878000114113,2.0650985999964178,,,74.0,67.0,67809,64.0,
-152,152,0,14,1,225,5,,,,,,,,,,,session,3479.354879599996,147.0,2.0,77.0,0.026883059299123206,4,1.3283431000309065,1.542676500044763,7,3.0077611000742763,3.1078079000581056,0,2.682906400063075,2.8457992000039667,,,67.0,67.0,67809,64.0,
152,-152,45,14,2,226,10,,,,,,,,,,,session,3493.2653985000215,154.0,2.0,77.0,0.026883059299123206,4,1.0633197000715882,1.2504335000412539,7,2.6882659000111744,2.919827700010501,0,0.32516239990945905,0.46232619998045266,,,74.0,67.0,67809,64.0,
152,152,90,14,3,227,3,,,,,,,,,,,session,3504.575419700006,192.0,2.0,77.0,0.026883059299123206,5,0.8200232000090182,0.9500862000277266,1,1.2350398000562564,1.3621461000293493,0,0.29180900007486343,0.39652230008505285,,,64.0,58.0,67809,64.0,
152,-152,0,14,4,228,9,,,,,,,,,,,session,3514.185617499985,186.0,2.0,77.0,0.026883059299123206,4,1.0191384999779984,1.2338744999142364,0,0.40171180001925677,0.5014886999269947,1,0.3113778999540955,0.41079530003480613,,,58.0,54.0,67809,64.0,
152,-152,90,14,5,229,11,,,,,,,,,,,session,3523.0511775000487,154.0,2.0,77.0,0.026883059299123206,4,0.7463960000313818,0.8608173000393435,1,0.9625404999824241,1.1135542000411078,0,0.6509313000133261,0.7518113000551239,,,64.0,67.0,67809,64.0,
-152,-152,90,14,6,230,15,,,,,,,,,,,session,3532.0949427000014,154.0,2.0,77.0,0.026883059299123206,3,1.2438236000016332,1.421995299984701,6,0.8750113000860438,0.9919083000859246,1,0.3348562999162823,0.5148679999401793,,,58.0,58.0,67809,64.0,
152,-152,-45,14,7,231,8,,,,,,,,,,,session,3541.302432599943,141.0,2.0,77.0,0.026883059299123206,5,1.4466108999913558,1.6176871000789106,0,0.011646800092421472,0.16640580003149807,0,0.30963129992596805,0.5930968999164179,,,74.0,51.0,67809,64.0,
-152,152,90,14,8,232,7,,,,,,,,,,,session,3549.9217686000047,173.0,2.0,77.0,0.026883059299123206,2,1.6246739000780508,1.7748908000066876,6,0.4159645000472665,0.5849699999671429,0,0.44145789998583496,0.6280534999677911,,,61.0,61.0,67809,64.0,
-152,152,-45,14,9,233,4,,,,,,,,,,,session,3559.482717799954,186.0,2.0,77.0,0.026883059299123206,2,1.1688588000833988,1.3291966000106186,6,0.6297501000808552,0.7684688000008464,0,0.4261028999462724,0.539440399967134,,,77.0,51.0,67809,64.0,
-152,152,45,14,10,234,6,,,,,,,,,,,session,3569.086478800047,134.0,2.0,77.0,0.026883059299123206,2,2.056142299901694,2.187712199985981,6,1.2152622999856248,1.3345123999752104,0,2.131103300023824,2.304107000003569,,,54.0,54.0,67809,64.0,
152,152,-45,14,11,235,0,,,,,,,,,,,session,3580.5717770999763,173.0,2.0,77.0,0.026883059299123206,5,1.0601145999971777,1.2761093999724835,1,1.2402688000584021,1.4050224999664351,1,0.4565661000087857,0.6123536000959575,,,51.0,51.0,67809,64.0,
-152,-152,45,14,12,236,14,,,,,,,,,,,session,3590.3075868999586,134.0,2.0,77.0,0.026883059299123206,3,1.2509097000584006,1.4311657999642193,7,0.6563416999997571,0.8564627000596374,0,2.962540200096555,3.151808400056325,,,54.0,67.0,67809,64.0,
152,152,0,14,13,237,1,,,,,,,,,,,session,3601.6370580999646,160.0,2.0,77.0,0.026883059299123206,5,0.2929375000530854,0.44491090008523315,0,0.3618100999156013,0.5757091999985278,1,0.34665570000652224,0.5352637000614777,,,74.0,67.0,67809,64.0,
-152,-152,-45,14,14,238,12,,,,,,,,,,,session,3610.0958957000403,134.0,2.0,77.0,0.026883059299123206,5,0.9306677000131458,1.0475579999620095,1,1.1777880999725312,1.3782084999838844,0,0.5739997000200674,0.70716650004033,,,67.0,58.0,67809,64.0,
-152,-152,0,14,15,239,13,,,,,,,,,,,session,3619.1772481000517,141.0,2.0,77.0,0.026883059299123206,4,1.6537111999932677,1.8867605000268668,0,0.492218800005503,0.6640313999960199,0,0.29273540002759546,0.47450829995796084,,,54.0,74.0,67809,64.0,
-152,-152,0,14,15,239,13,,,materials/instructions\12_break.png,3628.515340700047,3745.2358346000547,0,116.5364745000843,116.7185120000504,0.02237219992093742,116.72612120001577,,,,,,,,,,,,,,,,,,,,67809,64.0,
-152,-152,0,15,0,240,13,,,,,,,,,,,session,3745.2521890000207,141.0,2.0,77.0,0.026883059299123206,3,1.3402140999678522,1.573379599954933,0,0.8623817000770941,1.0593136000679806,0,1.141967400093563,1.3015111000277102,,,61.0,58.0,67809,64.0,
-152,-152,-45,15,1,241,12,,,,,,,,,,,session,3755.1923981000436,134.0,2.0,77.0,0.026883059299123206,5,1.4603330000536516,1.654829500010237,0,0.2780680999858305,0.4655112000182271,0,0.3486379999667406,0.494479599990882,,,67.0,58.0,67809,64.0,
152,152,45,15,2,242,2,,,,,,,,,,,session,3763.81920170004,154.0,2.0,77.0,0.026883059299123206,2,1.4140603999840096,1.6492383000440896,0,0.32514309999533,0.5258792000822723,0,0.30911109992302954,0.5973723999923095,,,77.0,61.0,67809,64.0,
152,152,0,15,3,243,1,,,,,,,,,,,session,3772.996470300015,141.0,2.0,77.0,0.026883059299123206,5,0.7046360000967979,0.8433925000717863,0,0.42674050002824515,0.6711552999913692,1,0.2708498000865802,0.5027222000062466,,,67.0,67.0,67809,64.0,
152,-152,0,15,4,244,9,,,,,,,,,,,session,3781.4507936999435,160.0,2.0,77.0,0.026883059299123206,4,1.1078732999740168,1.3084678000304848,7,0.3977306999731809,0.6200587999774143,0,0.12341780005954206,0.5898033999837935,,,58.0,67.0,67809,64.0,
-152,152,45,15,5,245,6,,,,,,,,,,,session,3790.4876594999805,179.0,2.0,77.0,0.026883059299123206,5,1.2023722999729216,1.419171700021252,6,0.527259900001809,0.816872900002636,0,0.31268099998123944,0.5160346999764442,,,58.0,74.0,67809,64.0,
152,-152,45,15,6,246,10,,,,,,,,,,,session,3800.254589500022,141.0,2.0,77.0,0.026883059299123206,4,0.5770230999914929,0.7941714000189677,7,1.3471817000536248,1.4814974999753758,0,0.4929782999679446,0.8953790999948978,,,54.0,77.0,67809,64.0,
152,152,90,15,7,247,3,,,,,,,,,,,session,3809.6749672000296,173.0,2.0,77.0,0.026883059299123206,5,0.978796299896203,1.1626823999686167,1,0.3462671999586746,0.5641108000418171,0,0.21014789992477745,0.410588699975051,,,54.0,64.0,67809,64.0,
-152,-152,90,15,8,248,15,,,,,,,,,,,session,3818.464995700051,154.0,2.0,77.0,0.026883059299123206,4,1.006709299981594,1.207954499986954,1,0.33861920004710555,0.5553690000670031,0,0.011002099956385791,0.012901399983093143,,,77.0,58.0,67809,64.0,
-152,152,90,15,9,249,7,,,,,,,,,,,session,3826.88472490001,147.0,2.0,77.0,0.026883059299123206,2,0.9666161000495777,1.1609441000036895,6,0.8853254000423476,1.0295485999668017,1,1.5892643000697717,1.7733885999768972,,,51.0,54.0,67809,64.0,
152,-152,-45,15,10,250,8,,,,,,,,,,,session,3836.726826100028,147.0,2.0,77.0,0.026883059299123206,4,0.9277685999404639,1.1146375000244007,1,1.145410199998878,1.3583602000726387,1,0.9773517999565229,1.1745119999395683,,,58.0,61.0,67809,64.0,
-152,152,0,15,11,251,5,,,,,,,,,,,session,3846.5638687999453,134.0,2.0,77.0,0.026883059299123206,2,0.903734999941662,1.1046840999042615,0,0.3590099998982623,0.49244419997558,1,0.3978582000127062,0.5500285000307485,,,58.0,61.0,67809,64.0,
-152,-152,45,15,12,252,14,,,,,,,,,,,session,3854.6255038999952,154.0,2.0,77.0,0.026883059299123206,3,0.7245240999618545,0.9584552999585867,7,0.6469510999741033,0.8308259999612346,1,0.22618090000469238,0.4461184999672696,,,58.0,74.0,67809,64.0,
152,-152,90,15,13,253,11,,,,,,,,,,,session,3863.3477511999663,147.0,2.0,77.0,0.026883059299123206,2,1.4431878000032157,1.6100949000101537,1,1.1686933999881148,1.3561331999953836,1,1.33186559996102,1.5098323000129312,,,77.0,67.0,67809,64.0,
152,152,-45,15,14,254,0,,,,,,,,,,,session,3874.372838499956,160.0,2.0,77.0,0.026883059299123206,3,1.2412419999018312,1.5096749999793246,0,0.23239659995306283,0.43758769996929914,0,0.5827051000669599,0.7448345000157133,,,58.0,54.0,67809,64.0,
-152,152,-45,15,15,255,4,,,,,,,,,,,session,3883.429665499949,134.0,2.0,77.0,0.026883059299123206,2,1.5790184999350458,1.7958645999897271,1,0.8636151999235153,1.0667273999424651,1,0.22497540002223104,0.3917808999540284,,,64.0,74.0,67809,64.0,
-152,-152,90,16,0,256,15,,,,,,,,,,,session,3893.000337800011,147.0,2.0,77.0,0.026883059299123206,3,0.6268159999744967,0.9105410999618471,7,0.8694848999148235,1.0693492999998853,1,0.35163920000195503,0.5136976999929175,,,64.0,61.0,67809,64.0,
-152,152,0,16,1,257,5,,,,,,,,,,,session,3901.5757701999974,141.0,2.0,77.0,0.026883059299123206,4,1.260137900011614,1.4575791999232024,0,0.36221589997876436,0.5144517000298947,0,0.11706800002139062,0.31748319999314845,,,67.0,74.0,67809,64.0,
152,152,90,16,2,258,3,,,,,,,,,,,session,3910.3331232999917,147.0,2.0,77.0,0.026883059299123206,5,0.7026232000207528,0.8391413999488577,6,0.9771255999803543,1.158917500055395,1,0.5333662000484765,0.7187780999811366,,,51.0,61.0,67809,64.0,
-152,152,90,16,3,259,7,,,,,,,,,,,session,3919.195780299953,147.0,2.0,77.0,0.026883059299123206,2,1.5590880999807268,1.7926712000044063,6,0.2964157999958843,0.4824994000373408,0,0.3635782999917865,0.524340600008145,,,74.0,64.0,67809,64.0,
-152,152,90,16,3,259,7,,,materials/instructions\12_break.png,3928.5568476000335,4017.2432195000583,0,88.4677093999926,88.68453640001826,0.021128399996086955,88.69234469998628,,,,,,,,,,,,,,,,,,,,67809,64.0,
152,-152,0,16,4,260,9,,,,,,,,,,,session,4017.2598568999674,160.0,2.0,77.0,0.026883059299123206,4,0.8350186999887228,1.0350382999749854,0,0.2659803000278771,0.45311599993146956,1,0.3241865000454709,0.4558666000375524,,,54.0,54.0,67809,64.0,
-152,152,-45,16,5,261,4,,,,,,,,,,,session,4025.451803099946,160.0,2.0,77.0,0.026883059299123206,5,1.3338630999205634,1.4805506999837235,0,0.011218199972063303,0.07282819994725287,0,0.01097109995316714,0.012881000060588121,,,51.0,64.0,67809,64.0,
-152,-152,0,16,6,262,13,,,,,,,,,,,session,4033.1930118999444,160.0,2.0,77.0,0.026883059299123206,3,0.6533522000536323,0.8256395000498742,0,0.010864799958653748,0.012726400047540665,1,0.5616116999881342,0.7119580999715254,,,74.0,64.0,67809,64.0,
-152,152,45,16,7,263,6,,,,,,,,,,,session,4041.4836484000552,154.0,2.0,77.0,0.026883059299123206,2,1.140506999916397,1.3242727000033483,7,0.5309006000170484,0.7304403999587521,1,0.259175100014545,0.38893020001705736,,,54.0,74.0,67809,64.0,
-152,-152,-45,16,8,264,12,,,,,,,,,,,session,4050.3214143000077,160.0,2.0,77.0,0.026883059299123206,4,1.4265424999175593,1.7164575000060722,1,0.4212542000459507,0.5822292000520974,0,0.07321089995093644,0.2736923999618739,,,51.0,74.0,67809,64.0,
-152,-152,45,16,9,265,14,,,,,,,,,,,session,4059.3586606000317,166.0,2.0,77.0,0.026883059299123206,3,0.7947866000467911,1.0284245000220835,7,1.2501549000153318,1.4142500000307336,1,1.545181700028479,1.7099499000469223,,,58.0,58.0,67809,64.0,
152,152,45,16,10,266,2,,,,,,,,,,,session,4069.885544199962,154.0,2.0,77.0,0.026883059299123206,5,0.8023522000294179,0.9178127000341192,7,1.1773596999701113,1.327914600027725,1,0.32977899990510195,0.4800421999534592,,,51.0,77.0,67809,64.0,
152,-152,90,16,11,267,11,,,,,,,,,,,session,4078.92897550005,166.0,2.0,77.0,0.026883059299123206,4,0.4841000000014901,0.767661500023678,7,0.8406339000212029,0.9556396000552922,1,0.42803980002645403,0.5917551000602543,,,51.0,51.0,67809,64.0,
152,-152,45,16,12,268,10,,,,,,,,,,,session,4087.39728429995,173.0,2.0,77.0,0.026883059299123206,4,0.8340897000161931,1.0815996000310406,1,1.166167699964717,1.382621599943377,1,0.28913599997758865,0.4056667999830097,,,51.0,77.0,67809,64.0,
152,152,-45,16,13,269,0,,,,,,,,,,,session,4097.058202099986,173.0,2.0,77.0,0.026883059299123206,5,0.602388700004667,0.7027667000656947,1,1.0793696000473574,1.2644805000163615,1,0.32399329997133464,0.4426896000513807,,,67.0,74.0,67809,64.0,
152,152,0,16,14,270,1,,,,,,,,,,,session,4106.584282899974,186.0,2.0,77.0,0.026883059299123206,2,1.3426157999783754,1.5928282999666408,0,0.07999060000292957,0.28713840001728386,0,0.011299599893391132,0.013758699991740286,,,77.0,58.0,67809,64.0,
152,-152,-45,16,15,271,8,,,,,,,,,,,session,4115.668164900038,141.0,2.0,77.0,0.026883059299123206,4,0.5283460000064224,0.7297663999488577,1,0.9782495000399649,1.1135261000599712,1,0.3504774000030011,0.48419069999363273,,,58.0,58.0,67809,64.0,
-152,-152,45,17,0,272,14,,,,,,,,,,,session,4124.028984399978,173.0,2.0,77.0,0.026883059299123206,2,1.4006019999505952,1.583602499915287,6,0.010983500047586858,0.012901299982331693,0,0.35972880001645535,0.5598652999615297,,,77.0,58.0,67809,64.0,
-152,-152,90,17,1,273,15,,,,,,,,,,,session,4133.185813399963,147.0,2.0,77.0,0.026883059299123206,4,1.2957289000041783,1.5623558999504894,1,1.237388499896042,1.3851446999469772,0,1.125590700074099,1.2586862000171095,,,67.0,67.0,67809,64.0,
152,-152,0,17,2,274,9,,,,,,,,,,,session,4143.676840099972,173.0,2.0,77.0,0.026883059299123206,3,1.3431620999472216,1.6316719999304041,7,0.012099399929866195,0.01398789999075234,0,0.37828479998279363,0.5004193000495434,,,74.0,74.0,67809,64.0,
-152,152,-45,17,3,275,4,,,,,,,,,,,session,4153.023948200047,141.0,2.0,77.0,0.026883059299123206,3,1.280096699949354,1.4977972999913618,6,0.4448566000210121,0.5793334000045434,0,0.2963160000508651,0.4776677000336349,,,74.0,54.0,67809,64.0,
-152,-152,0,17,4,276,13,,,,,,,,,,,session,4161.738895799965,186.0,2.0,77.0,0.026883059299123206,3,1.2434296000283211,1.4692386999959126,7,2.147236300050281,2.311360100051388,0,0.5400149000342935,0.724868500023149,,,64.0,54.0,67809,64.0,
152,-152,90,17,5,277,11,,,,,,,,,,,session,4173.102141399984,160.0,2.0,77.0,0.026883059299123206,4,1.0092634999891743,1.1958951000124216,0,0.31222770002204925,0.47967760008759797,0,0.29786589997820556,0.4159017999190837,,,77.0,77.0,67809,64.0,
152,152,45,17,6,278,2,,,,,,,,,,,session,4182.174963700003,179.0,2.0,77.0,0.026883059299123206,4,1.5363527999725193,1.8174826999893412,0,0.7971252000425011,0.998230200028047,0,0.6112704999977723,0.7444694000296295,,,61.0,77.0,67809,64.0,
152,-152,-45,17,7,279,8,,,,,,,,,,,session,4192.8152928999625,154.0,2.0,77.0,0.026883059299123206,4,0.4255951000377536,0.6094592000590637,1,1.46490610006731,1.6379915000870824,1,0.2580481000477448,0.4248172000516206,,,70.0,74.0,67809,64.0,
152,-152,-45,17,7,279,8,,,materials/instructions\12_break.png,4202.30237020005,4256.85956110002,0,54.45627650001552,54.55520619999152,0.01952480000909418,54.56294810003601,,,,,,,,,,,,,,,,,,,,67809,64.0,
-152,-152,-45,17,8,280,12,,,,,,,,,,,session,4256.875780200004,166.0,2.0,77.0,0.026883059299123206,2,1.58785219991114,1.8044505999423563,0,0.3403820999665186,0.4928473000181839,0,0.5664057999383658,0.7664950999896973,,,77.0,77.0,67809,64.0,
-152,152,45,17,9,281,6,,,,,,,,,,,session,4267.121310499962,141.0,2.0,77.0,0.026883059299123206,2,1.4328503999859095,1.5921719999751076,1,1.2258138000033796,1.3939350999426097,0,0.011423900024965405,0.17990890005603433,,,70.0,74.0,67809,64.0,
-152,152,0,17,10,282,5,,,,,,,,,,,session,4276.862879300024,173.0,2.0,77.0,0.026883059299123206,2,0.36936610005795956,0.5045108000049368,0,0.01096089999191463,0.01286759995855391,1,0.34365209995303303,0.5043175000464544,,,54.0,51.0,67809,64.0,
152,152,90,17,11,283,3,,,,,,,,,,,session,4284.435304600047,141.0,2.0,77.0,0.026883059299123206,5,1.0692934000398964,1.2324002999812365,6,0.36081959994044155,0.4940949999727309,0,0.7158630000194535,0.916746599948965,,,74.0,74.0,67809,64.0,
152,-152,45,17,12,284,10,,,,,,,,,,,session,4293.414588000043,141.0,2.0,77.0,0.026883059299123206,4,0.7346775999758393,0.9183549999725074,1,0.5773942999076098,0.7802643999457359,0,0.8883516000350937,1.0441145000513643,,,51.0,64.0,67809,64.0,
-152,152,90,17,13,285,7,,,,,,,,,,,session,4302.17154390004,186.0,2.0,77.0,0.026883059299123206,2,1.5445622000843287,1.7147982000606135,7,0.9575007000239566,1.08010879997164,1,0.35239240003284067,0.504701100056991,,,61.0,67.0,67809,64.0,
152,152,0,17,14,286,1,,,,,,,,,,,session,4312.506933799945,154.0,2.0,77.0,0.026883059299123206,5,0.6707037999294698,0.8087556000100449,0,0.011187999974936247,0.16635569999925792,1,0.2950620000483468,0.4431885000085458,,,67.0,58.0,67809,64.0,
152,152,-45,17,15,287,0,,,,,,,,,,,session,4320.393440400017,179.0,2.0,77.0,0.026883059299123206,5,0.9156703000189736,1.0999105999944732,1,1.3466991999885067,1.5169038000749424,1,1.525872900034301,1.6442017999943346,,,58.0,74.0,67809,64.0,
-152,152,-45,18,0,288,4,,,,,,,,,,,session,4331.452466899995,186.0,2.0,77.0,0.026883059299123206,2,1.1341613000258803,1.2674476000247523,1,1.1546753000002354,1.3030125999357551,1,0.3934823999879882,0.510274300002493,,,51.0,70.0,67809,64.0,
-152,152,0,18,1,289,5,,,,,,,,,,,session,4341.395848999964,179.0,2.0,77.0,0.026883059299123206,2,1.3731778000947088,1.5402022000635043,7,1.0019790000515059,1.1284980999771506,0,0.5681078999768943,0.6823812000220641,,,77.0,74.0,67809,64.0,
-152,152,90,18,2,290,7,,,,,,,,,,,session,4352.039108099998,173.0,2.0,77.0,0.026883059299123206,2,1.0646245999960229,1.231519699911587,6,0.4927459000609815,0.7362938000587747,0,0.39319579990115017,0.509920799988322,,,58.0,58.0,67809,64.0,
152,152,45,18,3,291,2,,,,,,,,,,,session,4361.0106488999445,173.0,2.0,77.0,0.026883059299123206,5,0.47214990004431456,0.6070470999693498,7,1.5805317999329418,1.7345249999780208,1,1.2105013999389485,1.3770044000120834,,,77.0,61.0,67809,64.0,
-152,-152,-45,18,4,292,12,,,,,,,,,,,session,4371.735335299978,179.0,2.0,77.0,0.026883059299123206,4,1.3147512000286952,1.5108318999409676,0,0.5047189999604598,0.6656073000049219,0,0.3513141000876203,0.5723930000094697,,,61.0,54.0,67809,64.0,
-152,-152,45,18,5,293,14,,,,,,,,,,,session,4381.026002999977,147.0,2.0,77.0,0.026883059299123206,3,1.3707338999956846,1.6711493000620976,0,1.0372867999831215,1.203405600041151,0,0.9429353000596166,1.0606982000172138,,,70.0,64.0,67809,64.0,
152,-152,90,18,6,294,11,,,,,,,,,,,session,4391.468799900031,186.0,2.0,77.0,0.026883059299123206,4,0.4902767000021413,0.6889496999792755,6,0.4465028999838978,0.6280017999233678,0,0.6282886000117287,3.1971002001082525,,,77.0,77.0,67809,64.0,
152,-152,-45,18,7,295,8,,,,,,,,,,,session,4403.37622840004,173.0,2.0,77.0,0.026883059299123206,4,0.9695586999878287,1.1529388000490144,1,1.396094899973832,1.549855999997817,1,0.39406780002173036,0.5414182000095025,,,58.0,61.0,67809,64.0,
-152,-152,0,18,8,296,13,,,,,,,,,,,session,4413.363987199962,147.0,2.0,77.0,0.026883059299123206,3,1.8145697000436485,2.000071500078775,0,0.16466080001555383,0.2999030000064522,0,0.43273270002100617,0.5755304000340402,,,74.0,77.0,67809,64.0,
-152,152,45,18,9,297,6,,,,,,,,,,,session,4422.856671000016,179.0,2.0,77.0,0.026883059299123206,3,1.265886400011368,1.450909600011073,7,1.4456138999667019,1.6135668999049813,0,0.5112066000001505,0.6957229999825358,,,74.0,74.0,67809,64.0,
152,-152,0,18,10,298,9,,,,,,,,,,,session,4433.8845312000485,186.0,2.0,77.0,0.026883059299123206,5,0.9798977000173181,1.127693000016734,7,1.6767734000459313,1.9117313000606373,0,0.3101137999910861,0.5603081999579445,,,74.0,54.0,67809,64.0,
152,152,-45,18,11,299,0,,,,,,,,,,,session,4444.389629099984,173.0,2.0,77.0,0.026883059299123206,5,0.7759213000535965,0.8593601000029594,1,1.211023300071247,1.3273818000452593,1,0.46722920006141067,0.6113246000604704,,,74.0,58.0,67809,64.0,
152,152,-45,18,11,299,0,,,materials/instructions\12_break.png,4454.164659800008,4500.578894000035,0,46.26415039994754,46.412253799964674,0.014049799996428192,46.42593690007925,,,,,,,,,,,,,,,,,,,,67809,64.0,
152,152,90,18,12,300,3,,,,,,,,,,,session,4500.601175699965,186.0,2.0,77.0,0.026883059299123206,5,0.4793115999782458,0.6314062000019476,6,0.4365074000088498,0.5894432000350207,1,0.3528626000043005,0.44475240004248917,,,61.0,74.0,67809,64.0,
152,-152,45,18,13,301,10,,,,,,,,,,,session,4509.339597400045,147.0,2.0,77.0,0.026883059299123206,4,0.7324626001063734,0.9113579000113532,7,1.1250306000001729,1.2162042999407277,1,1.5600943999597803,1.7458096999907866,,,64.0,51.0,67809,64.0,
152,152,0,18,14,302,1,,,,,,,,,,,session,4519.400068499963,166.0,2.0,77.0,0.026883059299123206,5,0.36641899996902794,0.4815940000116825,0,1.2643085999879986,1.3778901000041515,1,0.3503469000570476,0.4799862999934703,,,54.0,64.0,67809,64.0,
-152,-152,90,18,15,303,15,,,,,,,,,,,session,4528.17205719999,179.0,2.0,77.0,0.026883059299123206,3,0.978061799891293,1.139687899965793,6,0.8166773999109864,0.9688610999146476,1,0.3614250000100583,0.4891810000408441,,,67.0,74.0,67809,64.0,
152,152,45,19,0,304,2,,,,,,,,,,,session,4537.9622982,179.0,2.0,77.0,0.026883059299123206,5,4.6435220000566915,4.7620904999785125,6,1.6273002000525594,1.741870400030166,0,0.5323250000365078,0.7099157000193372,,,51.0,70.0,67809,64.0,
-152,152,90,19,1,305,7,,,,,,,,,,,session,4551.987022900023,134.0,2.0,77.0,0.026883059299123206,3,1.243574200081639,1.5437342000659555,1,1.4269680000143126,1.5494295000098646,0,0.5968374999938533,0.747212800080888,,,61.0,77.0,67809,64.0,
-152,-152,45,19,2,306,14,,,,,,,,,,,session,4562.130982700037,192.0,2.0,77.0,0.026883059299123206,5,1.0954387000529096,1.3102884000400081,7,1.5359498000470921,1.6968681000871584,0,0.3607637999812141,0.5638590999878943,,,51.0,64.0,67809,64.0,
152,152,90,19,3,307,3,,,,,,,,,,,session,4572.6563346999465,147.0,2.0,77.0,0.026883059299123206,5,0.5311024999246001,0.6918097999878228,6,0.3951046000001952,0.4950020000105724,1,0.36794379993807524,0.48390779993496835,,,64.0,61.0,67809,64.0,
152,-152,0,19,4,308,9,,,,,,,,,,,session,4580.70992709999,166.0,2.0,77.0,0.026883059299123206,4,0.52603520010598,0.7827337000053376,0,1.8298544000135735,1.997810999979265,1,0.34197409998159856,0.4731842998880893,,,70.0,51.0,67809,64.0,
152,-152,90,19,5,309,11,,,,,,,,,,,session,4590.482895000023,166.0,2.0,77.0,0.026883059299123206,4,0.42374520003795624,0.6085700000403449,6,1.0108879000181332,1.1088416000129655,1,2.247525699902326,2.3790612999582663,,,54.0,74.0,67809,64.0,
-152,152,45,19,6,310,6,,,,,,,,,,,session,4601.157863199944,179.0,2.0,77.0,0.026883059299123206,2,0.3950126999989152,0.5486544000450522,7,1.0312850000336766,1.1658118999330327,1,2.086327699944377,2.230708099901676,,,74.0,67.0,67809,64.0,
-152,-152,90,19,7,311,15,,,,,,,,,,,session,4612.18533909996,141.0,2.0,77.0,0.026883059299123206,3,1.1988891999935731,1.4494381999829784,1,0.34903140005189925,0.5103422000538558,0,0.3066338000353426,0.4704805000219494,,,51.0,77.0,67809,64.0,
152,152,-45,19,8,312,0,,,,,,,,,,,session,4620.692155000055,134.0,2.0,77.0,0.026883059299123206,5,0.3254716000519693,0.48048380005639046,1,1.4961058999178931,1.635830899933353,1,0.29373959999065846,0.41318709996994585,,,61.0,74.0,67809,64.0,
152,-152,45,19,9,313,10,,,,,,,,,,,session,4629.431616200018,141.0,2.0,77.0,0.026883059299123206,4,2.3647188999457285,2.5499891999643296,7,1.2083024999592453,1.3073922999901697,1,0.4139289000304416,0.5815678000217304,,,61.0,54.0,67809,64.0,
-152,152,-45,19,10,314,4,,,,,,,,,,,session,4639.786983099999,166.0,2.0,77.0,0.026883059299123206,2,1.0579116999870166,1.1743627999676391,7,1.0254653999581933,1.1637870999984443,1,1.5757344999583438,1.6793772999662906,,,74.0,58.0,67809,64.0,
152,-152,-45,19,11,315,8,,,,,,,,,,,session,4650.31098119996,134.0,2.0,77.0,0.026883059299123206,4,1.546608200063929,1.747512700036168,0,0.34652359993197024,0.4590945999370888,0,0.008125000051222742,0.12929790001362562,,,67.0,74.0,67809,64.0,
152,152,0,19,12,316,1,,,,,,,,,,,session,4658.749338199967,179.0,2.0,77.0,0.026883059299123206,5,0.6402475000359118,0.7528522000648081,0,0.2806607000529766,0.39801090001128614,1,0.3380757999839261,0.4568407000042498,,,77.0,61.0,67809,64.0,
-152,-152,-45,19,13,317,12,,,,,,,,,,,session,4667.293507299968,192.0,2.0,77.0,0.026883059299123206,3,1.5106929999310523,1.583338199998252,6,0.7181657999753952,0.8162579999770969,1,0.34452439995948225,0.4828898999840021,,,51.0,61.0,67809,64.0,
-152,152,0,19,14,318,5,,,,,,,,,,,session,4676.990033400012,186.0,2.0,77.0,0.026883059299123206,2,0.6887444999301806,0.7974246999947354,0,0.5440033000195399,0.6983744000317529,1,0.29000560007989407,0.4415523000061512,,,74.0,77.0,67809,64.0,
-152,-152,0,19,15,319,13,,,,,,,,,,,session,4686.160604499979,141.0,2.0,77.0,0.026883059299123206,3,1.4800123000750318,1.7280592999886721,0,0.6541198000777513,0.7976958999643102,0,0.42361329996492714,0.6555269999662414,,,54.0,64.0,67809,64.0,
-152,-152,0,19,15,319,13,,,materials/instructions\12_break.png,4695.319425499998,4744.031231299974,0,48.5096584999701,48.70981339993887,0.010487699997611344,48.717743000015616,,,,,,,,,,,,,,,,,,,,67809,64.0,
,,,,,,,,,materials/instructions\13_end.png,4744.086071599973,4755.389190900023,0,10.555668200016953,11.301223499933258,0.014305199962109327,11.310057300026529,,,,,,,,,,,,,,,,,,,,67809,64.0,
