x,y,orientation,.thisRepN,.thisTrialN,.thisN,.thisIndex,.stepSize,.intensity,image_name,global_start_time,global_end_time,pressKey,pressRT,releaseRT,image_started,image_ended,name,globalTime,fixation_dur,stimulation_dur,post_fixation,opacity,locationResponse_pressKey,locationResponse_pressRT,locationResponse_releaseRT,orientationResponse_pressKey,orientationResponse_pressRT,orientationResponse_releaseRT,pasResponse_pressKey,pasResponse_pressRT,pasResponse_releaseRT,.response,finalOpacity,postLoc,postOri,ID,frameRate,
,,,0,-1,-1,0,0.0969100130080564,None,materials/instructions\1_welcome.png,4.242813399999704,29.88635159999967,0,25.44120669999984,25.641208099999858,0.057396199999857345,25.640907799999695,,,,,,,,,,,,,,,,,,,,67891,60.0,
,,,0,-1,-1,0,0.0969100130080564,None,materials/instructions\2_instruction.png,29.945612499999697,55.47545739999987,0,25.359083499999997,25.52767300000005,0.010568299999704323,25.533537199999955,,,,,,,,,,,,,,,,,,,,67891,60.0,
,,,0,-1,-1,0,0.0969100130080564,None,materials/instructions\3_location_demo.png,55.53339519999963,63.00141429999985,0,7.299839499999962,7.4666354000000865,0.02511149999963891,7.473554899999726,,,,,,,,,,,,,,,,,,,,67891,60.0,
,,,0,-1,-1,0,0.0969100130080564,None,materials/instructions\4_orientation_demo.png,63.049729899999875,76.23814399999992,0,13.053044200000386,13.186440200000106,0.015238700000281824,13.194186600000194,,,,,,,,,,,,,,,,,,,,67891,60.0,
,,,0,-1,-1,0,0.0969100130080564,None,materials/instructions\5_pas_demo.png,76.29185089999964,101.00697339999988,0,24.529554899999766,24.713158799999746,0.015320800000154122,24.719810000000052,,,,,,,,,,,,,,,,,,,,67891,60.0,
77,77,90,0,-1,-1,0,0.0969100130080564,None,,,,,,,,,session,101.02291369999966,126.0,2.0,72.0,0.1,5,2.0085636999997405,2.158264599999711,6,2.628537099999903,2.807902799999738,6,2.9798963000002914,3.113313299999845,,,,,67891,60.0,
77,77,45,0,-1,-1,0,0.0969100130080564,None,,,,,,,,,session,112.59003349999966,150.0,2.0,72.0,0.1,5,0.7963316999998824,0.9301468999997269,1,2.502120599999671,2.6521844999997484,7,2.7360622999999578,2.8036157000001367,,,,,67891,60.0,
77,77,0,0,-1,-1,0,0.0969100130080564,None,,,,,,,,,session,122.86004909999974,138.0,2.0,72.0,0.1,5,0.8786608000000342,1.0117511000003105,0,1.9215100999999777,2.104788699999972,6,3.7299808999996458,3.860248699999829,,,,,67891,60.0,
77,77,-45,0,-1,-1,0,0.0969100130080564,None,,,,,,,,,session,133.51996169999984,132.0,2.0,72.0,0.1,5,1.8505494000000908,1.9838827999997193,7,1.9918096000001242,2.1242112999998426,7,1.5358633000000737,1.5692147000004297,,,,,67891,60.0,
-77,77,-45,0,-1,-1,0,0.0969100130080564,None,,,,,,,,,session,142.79115469999988,126.0,2.0,72.0,0.1,2,0.832423899999867,1.0348168999998961,7,4.059435099999973,4.201544999999896,7,0.927481600000192,1.0606879000001754,,,,,67891,60.0,
,,,0,-1,-1,0,0.0969100130080564,None,materials/instructions\10_staircase_start.png,152.62807069999963,161.6703983999996,0,8.906955399999788,9.040271200000007,0.02155129999982819,9.048115399999915,,,,,,,,,,,,,,,,,,,,67891,60.0,
,,,0,0,-1,0,0.0969100130080564,0.1,,,,,,,,,staircase,161.68551979999984,156.0,2.0,72.0,0.1,,,,0,1.2954627999997683,1.4131400000001122,,,,1,,,,67891,60.0,
,,,0,1,-1,0,0.0969100130080564,0.08,,,,,,,,,staircase,167.00962149999987,180.0,2.0,72.0,0.08,,,,7,1.3455447000001186,1.479029999999966,,,,0,,,,67891,60.0,
,,,0,2,-1,0,0.0969100130080564,0.1,,,,,,,,,staircase,172.82985919999965,162.0,2.0,72.0,0.1,,,,1,1.358076699999856,1.4894448000000011,,,,0,,,,67891,60.0,
,,,0,3,-1,0,0.0969100130080564,0.125,,,,,,,,,staircase,178.88705739999978,180.0,2.0,72.0,0.125,,,,7,1.1577955000002476,1.2415555000002314,,,,0,,,,67891,60.0,
,,,0,4,-1,0,0.0969100130080564,0.15625,,,,,,,,,staircase,184.4378773999997,180.0,2.0,72.0,0.15625,,,,6,2.7129564000001665,2.8812637000000905,,,,1,,,,67891,60.0,
,,,0,5,-1,0,0.0969100130080564,0.15625,,,,,,,,,staircase,191.62962289999996,180.0,2.0,72.0,0.15625,,,,6,2.49510489999966,2.628077399999711,,,,1,,,,67891,60.0,
,,,0,6,-1,0,0.0969100130080564,0.125,,,,,,,,,staircase,198.80492589999994,162.0,2.0,72.0,0.125,,,,0,3.4775399000000107,3.577438600000278,,,,0,,,,67891,60.0,
,,,0,7,-1,0,0.0969100130080564,0.15625,,,,,,,,,staircase,206.38863619999984,168.0,2.0,72.0,0.15625,,,,0,0.8731293000000733,1.0047144000000117,,,,1,,,,67891,60.0,
,,,0,8,-1,0,0.0969100130080564,0.15625,,,,,,,,,staircase,211.50892889999977,144.0,2.0,72.0,0.15625,,,,7,1.364743499999804,1.5150085999998737,,,,0,,,,67891,60.0,
,,,0,9,-1,0,0.0969100130080564,0.1953125,,,,,,,,,staircase,216.72927909999999,156.0,2.0,72.0,0.1953125,,,,6,1.7597147999999834,1.8928964000001542,,,,1,,,,67891,60.0,
,,,0,10,-1,0,0.0969100130080564,0.1953125,,,,,,,,,staircase,223.17205299999978,138.0,2.0,72.0,0.1953125,,,,7,1.249500700000226,1.4323918999998568,,,,0,,,,67891,60.0,
,,,0,11,-1,0,0.0969100130080564,0.244140625,,,,,,,,,staircase,228.20634569999993,132.0,2.0,72.0,0.244140625,,,,7,0.613698099999965,0.7627394999999524,,,,0,,,,67891,60.0,
,,,0,12,-1,0,0.0969100130080564,0.30517578125,,,,,,,,,staircase,232.4911932,138.0,2.0,72.0,0.30517578125,,,,1,1.1139228000001822,1.2473144000000502,,,,0,,,,67891,60.0,
,,,0,13,-1,0,0.0969100130080564,0.3814697265625,,,,,,,,,staircase,237.34569659999988,162.0,2.0,72.0,0.3814697265625,,,,7,0.6535986999997476,0.8033152999996673,,,,0,,,,67891,60.0,
,,,0,14,-1,0,0.0969100130080564,0.476837158203125,,,,,,,,,staircase,242.6561084,150.0,2.0,72.0,0.476837158203125,,,,0,0.9387523999998848,1.0563968999999815,,,,1,,,,67891,60.0,
,,,0,15,-1,0,0.0969100130080564,0.476837158203125,,,,,,,,,staircase,247.54052589999992,126.0,2.0,72.0,0.476837158203125,,,,0,0.835262000000057,1.1855673999998544,,,,1,,,,67891,60.0,
,,,0,16,-1,0,0.0969100130080564,0.3814697265625,,,,,,,,,staircase,252.1394876999998,144.0,2.0,72.0,0.3814697265625,,,,1,1.2799952000000303,1.4310434999997597,,,,0,,,,67891,60.0,
,,,0,17,-1,0,0.0969100130080564,0.476837158203125,,,,,,,,,staircase,257.27821670000003,174.0,2.0,72.0,0.476837158203125,,,,6,0.7861244000000625,0.9333668999997826,,,,1,,,,67891,60.0,
,,,0,18,-1,0,0.0969100130080564,0.476837158203125,,,,,,,,,staircase,262.46554209999977,156.0,2.0,72.0,0.476837158203125,,,,7,1.3714466000001266,1.7570114999998623,,,,0,,,,67891,60.0,
,,,0,19,-1,0,0.0969100130080564,0.5960464477539062,,,,,,,,,staircase,268.60588400000006,162.0,2.0,72.0,0.5960464477539062,,,,0,0.8463354999998955,0.9962203000000045,,,,1,,,,67891,60.0,
,,,0,20,-1,0,0.0969100130080564,0.5960464477539062,,,,,,,,,staircase,273.6062787999999,150.0,2.0,72.0,0.5960464477539062,,,,0,0.9467723000002479,1.146926700000222,,,,1,,,,67891,60.0,
,,,0,21,-1,0,0.0969100130080564,0.476837158203125,,,,,,,,,staircase,278.5595368999998,126.0,2.0,72.0,0.476837158203125,,,,6,0.7303440000000592,0.9306457999996383,,,,1,,,,67891,60.0,
,,,0,22,-1,0,0.0969100130080564,0.476837158203125,,,,,,,,,staircase,282.89695889999985,144.0,2.0,72.0,0.476837158203125,,,,7,1.1209183999999368,1.288530499999979,,,,0,,,,67891,60.0,
,,,0,23,-1,0,0.0969100130080564,0.5960464477539062,,,,,,,,,staircase,288.62083189999976,162.0,2.0,72.0,0.5960464477539062,,,,7,0.591166499999872,0.7911583999998584,,,,0,,,,67891,60.0,
,,,0,24,-1,0,0.0969100130080564,0.7450580596923828,,,,,,,,,staircase,293.42148419999967,132.0,2.0,72.0,0.7450580596923828,,,,0,0.8297539999998662,1.046596799999861,,,,1,,,,67891,60.0,
,,,0,25,-1,0,0.0969100130080564,0.7450580596923828,,,,,,,,,staircase,297.97410539999964,150.0,2.0,72.0,0.7450580596923828,,,,0,0.349227300000166,0.5495940000000701,,,,1,,,,67891,60.0,
,,,0,26,-1,0,0.0969100130080564,0.5960464477539062,,,,,,,,,staircase,302.3285114999999,138.0,2.0,72.0,0.5960464477539062,,,,1,0.5068016000000171,0.6788379999998142,,,,0,,,,67891,60.0,
,,,0,27,-1,0,0.0969100130080564,0.7450580596923828,,,,,,,,,staircase,306.70610369999986,144.0,2.0,72.0,0.7450580596923828,,,,1,0.4820244000002276,0.6653469000002588,,,,0,,,,67891,60.0,
,,,0,28,-1,0,0.0969100130080564,0.9313225746154785,,,,,,,,,staircase,311.4883814,168.0,2.0,72.0,0.9313225746154785,,,,1,0.40755059999992227,0.5413551000001462,,,,0,,,,67891,60.0,
,,,0,29,-1,0,0.0969100130080564,1,,,,,,,,,staircase,316.15499169999975,126.0,2.0,72.0,1,,,,6,0.48016450000022814,0.7492182000000867,,,,1,,,,67891,60.0,
,,,0,30,-1,0,0.0969100130080564,1,,,,,,,,,staircase,320.3111346999999,144.0,2.0,72.0,1,,,,0,0.4806355999999141,0.6484519999999065,,,,1,,,,67891,60.0,
,,,0,31,-1,0,0.0969100130080564,0.8,,,,,,,,,staircase,324.66391109999995,180.0,2.0,72.0,0.8,,,,1,0.6981347999999343,0.9650578999999198,,,,0,,,,67891,60.0,
,,,0,32,-1,0,0.0969100130080564,1.0,,,,,,,,,staircase,330.28553299999976,168.0,2.0,72.0,1.0,,,,6,0.4542944999998326,0.6233954999997877,,,,1,,,,67891,60.0,
,,,0,33,-1,0,0.0969100130080564,1.0,,,,,,,,,staircase,335.09043889999975,168.0,2.0,72.0,1.0,,,,0,0.4265034000000014,0.7105034000001069,,,,1,,,,67891,60.0,
,,,0,34,-1,0,0.0969100130080564,0.8,,,,,,,,,staircase,339.9067866999999,156.0,2.0,72.0,0.8,,,,0,0.4313311999999314,0.6325716999999713,,,,1,,,,67891,60.0,
,,,0,35,-1,0,0.0969100130080564,0.8,,,,,,,,,staircase,344.44463559999986,132.0,2.0,72.0,0.8,,,,6,0.6263044000002083,0.8265195000003587,,,,1,,,,67891,60.0,
,,,0,36,-1,0,0.0969100130080564,0.64,,,,,,,,,staircase,348.7965455999997,126.0,2.0,72.0,0.64,,,,6,0.01122110000005705,0.013341300000320189,,,,0,,,,67891,60.0,
,,,0,37,-1,0,0.0969100130080564,0.8,,,,,,,,,staircase,352.76309569999967,156.0,2.0,72.0,0.8,,,,1,3.039600700000392,3.1887525000001915,,,,1,,,,67891,60.0,
,,,0,38,-1,0,0.0969100130080564,0.8,,,,,,,,,staircase,359.8722217999998,132.0,2.0,72.0,0.8,,,,0,0.41021260000024995,0.6605233999998745,,,,1,,,,67891,60.0,
,,,0,39,-1,0,0.0969100130080564,0.64,,,,,,,,,staircase,364.04205,132.0,2.0,72.0,0.64,,,,1,0.5988572000001113,0.7678848000000471,,,,0,,,,67891,60.0,
,,,0,40,-1,0,0.0969100130080564,0.8,,,,,,,,,staircase,368.3165944999996,174.0,2.0,72.0,0.8,,,,0,0.6192033999996056,0.8230800999999701,,,,1,,,,67891,60.0,
,,,0,41,-1,0,0.0969100130080564,0.8,,,,,,,,,staircase,373.5512956999996,162.0,2.0,72.0,0.8,,,,0,0.3779344999998102,0.5253981000000749,,,,1,,,,67891,60.0,
,,,0,42,-1,0,0.0969100130080564,0.64,,,,,,,,,staircase,378.38819999999987,132.0,2.0,72.0,0.64,,,,6,1.175603300000148,1.358443200000238,,,,1,,,,67891,60.0,
,,,0,43,-1,0,0.0969100130080564,0.64,,,,,,,,,staircase,383.2561357999998,144.0,2.0,72.0,0.64,,,,7,1.1795130000000427,1.3786764999999832,,,,0,,,,67891,60.0,
,,,0,44,-1,0,0.0969100130080564,0.8,,,,,,,,,staircase,388.3429226999997,168.0,2.0,72.0,0.8,,,,6,0.3122721999998248,0.6294044999999642,,,,1,,,,67891,60.0,
,,,0,45,-1,0,0.0969100130080564,0.8,,,,,,,,,staircase,393.08079469999984,168.0,2.0,72.0,0.8,,,,6,0.43852079999987836,0.6243823999998313,,,,1,,,,67891,60.0,
,,,0,46,-1,0,0.0969100130080564,0.64,,,,,,,,,staircase,398.45622669999966,156.0,2.0,72.0,0.64,,,,0,0.924185800000032,1.120557700000063,,,,1,,,,67891,60.0,
,,,0,47,-1,0,0.0969100130080564,0.64,,,,,,,,,staircase,403.5208940999996,156.0,2.0,72.0,0.64,,,,7,1.378136799999993,1.5956478999996762,,,,0,,,,67891,60.0,
,,,0,48,-1,0,0.0969100130080564,0.8,,,,,,,,,staircase,409.0270836999998,150.0,2.0,72.0,0.8,,,,0,0.3773642999999538,0.5941192999998748,,,,1,,,,67891,60.0,
,,,0,49,-1,0,0.0969100130080564,0.8,,,,,,,,,staircase,413.44560309999997,156.0,2.0,72.0,0.8,,,,0,0.5700544000001173,0.81878689999985,,,,1,,,,67891,60.0,
,,,0,50,-1,0,0.0969100130080564,0.64,,,,,,,,,staircase,418.3856717999997,162.0,2.0,72.0,0.64,,,,7,1.4632150000002184,1.7106450000001132,,,,0,,,,67891,60.0,
,,,0,51,-1,0,0.0969100130080564,0.8,,,,,,,,,staircase,424.1380885999997,132.0,2.0,72.0,0.8,,,,7,0.42546379999976125,0.5755120999997416,,,,0,,,,67891,60.0,
,,,0,52,-1,0,0.0969100130080564,1.0,,,,,,,,,staircase,428.2232045999999,144.0,2.0,72.0,1.0,,,,0,0.4477188999999271,0.7643693999998504,,,,1,,,,67891,60.0,
,,,0,53,-1,0,0.0969100130080564,1.0,,,,,,,,,staircase,432.69408729999986,144.0,2.0,72.0,1.0,,,,1,0.8622107999999571,1.048295699999926,,,,0,,,,67891,60.0,
,,,0,54,-1,0,0.0969100130080564,1,,,,,,,,,staircase,437.4499530999997,132.0,2.0,72.0,1,,,,1,0.5245038999996723,0.8546904999998333,,,,0,,,,67891,60.0,
,,,0,55,-1,0,0.0969100130080564,1,,,,,,,,,staircase,442.637334,174.0,2.0,72.0,1,,,,0,0.645216899999923,0.8456146999997145,,,,1,,,,67891,60.0,
,,,0,56,-1,0,0.0969100130080564,1,,,,,,,,,staircase,447.69177820000004,156.0,2.0,72.0,1,,,,0,0.5147213999998712,0.7152926999997362,,,,1,,,,67891,60.0,
,,,0,57,-1,0,0.0969100130080564,0.8,,,,,,,,,staircase,452.3090638999997,168.0,2.0,72.0,0.8,,,,0,0.40051450000009936,0.6525424999999814,,,,1,,,,67891,60.0,
,,,0,58,-1,0,0.0969100130080564,0.8,,,,,,,,,staircase,457.06364959999974,138.0,2.0,72.0,0.8,,,,0,0.5352692999999817,0.7366620999996485,,,,1,,,,67891,60.0,
,,,0,59,-1,0,0.0969100130080564,0.64,,,,,,,,,staircase,461.4863790999998,138.0,2.0,72.0,0.64,,,,7,1.2978659999998854,1.43028779999986,,,,0,,,,67891,60.0,
,,,0,60,-1,0,0.0969100130080564,0.8,,,,,,,,,staircase,466.93887369999993,138.0,2.0,72.0,0.8,,,,1,0.8294197000000167,0.980538599999818,,,,0,,,,67891,60.0,
,,,0,61,-1,0,0.0969100130080564,1.0,,,,,,,,,staircase,471.5249051999999,138.0,2.0,72.0,1.0,,,,0,0.5632393999999294,0.7309239000001071,,,,1,,,,67891,60.0,
,,,0,62,-1,0,0.0969100130080564,1.0,,,,,,,,,staircase,475.87885879999976,162.0,2.0,72.0,1.0,,,,0,0.36360380000041914,0.6131320000004052,,,,1,,,,67891,60.0,
,,,0,63,-1,0,0.0969100130080564,0.8,,,,,,,,,staircase,480.49674319999986,168.0,2.0,72.0,0.8,,,,7,1.1034270999998625,1.236949099999947,,,,0,,,,67891,60.0,
,,,0,64,-1,0,0.0969100130080564,1.0,,,,,,,,,staircase,486.3877413,168.0,2.0,72.0,1.0,,,,7,0.011223700000300596,0.013173600000300212,,,,0,,,,67891,60.0,
,,,0,65,-1,0,0.0969100130080564,1,,,,,,,,,staircase,490.50973669999985,132.0,2.0,72.0,1,,,,7,0.012333399999988615,0.014214499999980035,,,,0,,,,67891,60.0,
,,,0,66,-1,0,0.0969100130080564,1,,,,,,,,,staircase,494.0166946999998,174.0,2.0,72.0,1,,,,0,0.01117999999996755,0.013088000000152533,,,,0,,,,67891,60.0,
,,,0,67,-1,0,0.0969100130080564,1,,,,,,,,,staircase,498.2492605999996,132.0,2.0,72.0,1,,,,1,5.6056055999997625,5.918314499999724,,,,0,,,,67891,60.0,
,,,0,68,-1,0,0.0969100130080564,1,,,,,,,,,staircase,507.67036389999976,150.0,2.0,72.0,1,,,,6,2.1943758000002163,2.3443065000001297,,,,1,,,,67891,60.0,
,,,0,69,-1,0,0.0969100130080564,1,,,,,,,,,staircase,513.8231858999998,126.0,2.0,72.0,1,,,,7,1.1626628999997592,1.3126130000000558,,,,0,,,,67891,60.0,
,,,0,-1,-1,0,,,materials/instructions\11_session_start.png,518.5669024999997,535.4725753999996,0,16.72011190000012,16.90366690000019,0.011233000000174798,16.911002700000154,,,,,,,,,,,,,,,,,,,,67891,60.0,
,,,0,-1,-1,0,,,,,,,,,,,,,,,,,,,,,,,,,,,0.8480000000000001,,,67891,60.0,
-77,-77,45,0,0,0,14,,,,,,,,,,,session,535.4899440999998,168.0,2.0,72.0,0.8480000000000001,3,1.8291801999998825,1.9626235000000634,1,0.9153083000001061,1.0969332000004215,7,1.5193186999999853,1.7352507000000514,,,66.0,66.0,67891,60.0,
77,-77,45,0,1,1,10,,,,,,,,,,,session,546.7331906,162.0,2.0,72.0,0.8480000000000001,4,1.289867200000117,1.4398284999997486,1,1.0096017000000757,1.1763181000001168,6,2.234868600000027,2.415924200000063,,,60.0,54.0,67891,60.0,
77,-77,90,0,2,2,11,,,,,,,,,,,session,558.4606912999998,132.0,2.0,72.0,0.8480000000000001,4,1.5296784000001935,1.5461420999999973,6,2.1485814000002392,2.2982419999998456,7,1.7037048999995932,1.868962599999577,,,69.0,60.0,67891,60.0,
77,77,0,0,3,3,1,,,,,,,,,,,session,569.9663729999997,132.0,2.0,72.0,0.8480000000000001,5,1.0203798999996252,1.2008686999997735,0,1.556981199999882,1.7102810000001227,7,1.4670106999997188,1.7172222999997757,,,54.0,72.0,67891,60.0,
-77,-77,0,0,4,4,13,,,,,,,,,,,session,581.0421895,168.0,2.0,72.0,0.8480000000000001,3,0.8984912000000804,1.0486303000002408,0,1.397642999999789,1.6493408999999701,7,1.3652823000002172,1.4827741000003698,,,57.0,66.0,67891,60.0,
-77,77,90,0,5,5,7,,,,,,,,,,,session,591.5165892999999,156.0,2.0,72.0,0.8480000000000001,2,0.8884512999998151,1.0859356999999363,6,1.6940331999999216,1.89330579999978,7,0.8241030999997747,0.9937257000001409,,,60.0,63.0,67891,60.0,
77,-77,-45,0,6,6,8,,,,,,,,,,,session,602.2784686999998,156.0,2.0,72.0,0.8480000000000001,4,0.9465000999998665,1.34671359999993,7,0.9635052999997242,1.2492111999999906,7,0.5474113999998735,0.7641981000001579,,,48.0,54.0,67891,60.0,
-77,-77,-45,0,7,7,12,,,,,,,,,,,session,611.3808955,132.0,2.0,72.0,0.8480000000000001,3,0.5723132999996778,0.7557475999997223,7,3.425332199999957,3.8053586999999425,7,2.2162261000003127,2.4672997000002397,,,57.0,51.0,67891,60.0,
77,77,90,0,8,8,3,,,,,,,,,,,session,623.8624399999999,174.0,2.0,72.0,0.8480000000000001,5,0.9454642999999123,1.1140445999999429,6,1.4307933000000048,1.5816946999998436,7,1.3871585000001687,1.5515365000001111,,,57.0,66.0,67891,60.0,
-77,-77,90,0,9,9,15,,,,,,,,,,,session,634.5143252999997,180.0,2.0,72.0,0.8480000000000001,3,0.3551753000001554,0.571205799999916,6,0.9953160000000025,1.1787686999996367,7,1.0124989000000824,1.2134103000003051,,,57.0,60.0,67891,60.0,
77,77,45,0,10,10,2,,,,,,,,,,,session,644.3934270999998,126.0,2.0,72.0,0.8480000000000001,5,0.9580531999999948,1.157445800000005,1,0.7294242000002669,0.9311931000002005,7,0.9861756000000241,1.1365719000000354,,,63.0,60.0,67891,60.0,
-77,77,-45,0,11,11,4,,,,,,,,,,,session,653.2465562999996,168.0,2.0,72.0,0.8480000000000001,2,1.737455299999965,1.9209789000001365,7,0.9914859999998953,1.1705377999996927,7,0.2676299999998264,0.4310425999997278,,,72.0,66.0,67891,60.0,
77,-77,0,0,12,12,9,,,,,,,,,,,session,663.3575026999997,168.0,2.0,72.0,0.8480000000000001,4,0.6693604000001869,0.8193292000000838,0,0.8289935999996487,1.0624728999996478,7,1.468888099999731,1.652490499999658,,,66.0,48.0,67891,60.0,
77,77,-45,0,13,13,0,,,,,,,,,,,session,673.0282829999996,168.0,2.0,72.0,0.8480000000000001,5,1.462743899999623,1.5961696999997912,7,0.8137464000001273,0.9807249000000411,7,0.896774600000299,1.0650335999998788,,,54.0,72.0,67891,60.0,
-77,77,45,0,14,14,6,,,,,,,,,,,session,683.0468719,150.0,2.0,72.0,0.8480000000000001,2,1.0235084000000825,1.173474200000328,1,1.3749540999997407,1.591751099999783,7,0.9854252000000088,1.1354034999999385,,,51.0,57.0,67891,60.0,
-77,77,0,0,15,15,5,,,,,,,,,,,session,692.9610706999997,174.0,2.0,72.0,0.8480000000000001,2,0.7132943999999952,0.930280799999764,0,0.5787562000000435,0.9131044999999176,7,1.1255173000004106,1.307864900000368,,,51.0,60.0,67891,60.0,
-77,77,45,1,0,16,6,,,,,,,,,,,session,702.3011364999998,150.0,2.0,72.0,0.8480000000000001,2,0.5738503000002311,0.7739338000001226,1,0.4622004999996534,0.6940106999995805,7,1.030125599999792,1.2636904999999388,,,60.0,63.0,67891,60.0,
77,-77,90,1,1,17,11,,,,,,,,,,,session,711.5780918999999,144.0,2.0,72.0,0.8480000000000001,4,0.5293102999999064,0.7958794000001035,6,0.8937559999999394,1.0771399000000201,7,1.3519098000001577,1.5355231000003187,,,60.0,60.0,67891,60.0,
77,77,-45,1,2,18,0,,,,,,,,,,,session,720.8489015,180.0,2.0,72.0,0.8480000000000001,5,2.390664700000343,2.523966400000063,7,1.7247305000000779,2.061315800000102,6,1.2842320999998265,1.4854396000000634,,,51.0,54.0,67891,60.0,
77,77,0,1,3,19,1,,,,,,,,,,,session,733.1121109999999,138.0,2.0,72.0,0.8480000000000001,5,0.5592629999996461,0.7430258999997932,0,0.6607602000003681,0.8785342000001037,7,1.6352646000000277,1.7855462000002262,,,48.0,51.0,67891,60.0,
77,77,0,1,3,19,1,,,materials/instructions\12_break.png,741.9592054999998,790.4656040999998,0,48.38749680000001,48.504286299999876,0.022477399999843328,48.511538799999926,,,,,,,,,,,,,,,,,,,,67891,60.0,
77,-77,45,1,4,20,10,,,,,,,,,,,session,790.4810454999997,168.0,2.0,72.0,0.8480000000000001,4,1.020814800000153,1.152010700000119,1,0.7891669999999067,1.0549793999998656,7,1.9474136999997427,2.130771099999947,,,57.0,48.0,67891,60.0,
77,77,45,1,5,21,2,,,,,,,,,,,session,801.5272952,126.0,2.0,72.0,0.8480000000000001,5,0.4818388999997296,0.7319563000000926,1,0.8494799999998577,1.030222700000195,7,0.9358640000000378,1.3027471999998852,,,72.0,57.0,67891,60.0,
-77,-77,-45,1,6,22,12,,,,,,,,,,,session,810.2844673,132.0,2.0,72.0,0.8480000000000001,3,0.4305733000001055,0.6214942000001429,7,0.4373475000002145,0.6917418000002726,7,0.5657802999999149,0.7991071999999804,,,72.0,69.0,67891,60.0,
-77,77,0,1,7,23,5,,,,,,,,,,,session,818.4135128999997,162.0,2.0,72.0,0.8480000000000001,2,0.7573975999998765,0.924927800000205,0,0.5639718000002176,0.7976260000000366,7,0.7367113000000245,0.9868831999997383,,,60.0,57.0,67891,60.0,
77,-77,0,1,8,24,9,,,,,,,,,,,session,827.2288613999999,144.0,2.0,72.0,0.8480000000000001,4,0.3303720999997495,0.5956249000000753,0,0.8801791000000776,1.1301422999999886,7,0.8865209999999024,1.1200097000000824,,,69.0,57.0,67891,60.0,
77,-77,-45,1,9,25,8,,,,,,,,,,,session,836.0190740999997,138.0,2.0,72.0,0.8480000000000001,4,0.7746502999998484,1.243373899999824,7,0.8424713999997948,1.111772899999778,7,0.6642002999997203,0.864190299999791,,,72.0,60.0,67891,60.0,
-77,77,90,1,10,26,7,,,,,,,,,,,session,845.7772725999998,138.0,2.0,72.0,0.8480000000000001,2,0.6798284999999851,0.8966354999997748,6,0.882393399999728,1.3151036999997814,1,2.516942900000231,2.749261700000261,,,57.0,63.0,67891,60.0,
-77,-77,90,1,11,27,15,,,,,,,,,,,session,856.4844482999997,174.0,2.0,72.0,0.8480000000000001,3,0.706119899999976,0.885632799999712,6,0.5136615999999776,0.7804406000000199,7,0.30100499999980457,0.5179003999996894,,,48.0,51.0,67891,60.0,
-77,-77,0,1,12,28,13,,,,,,,,,,,session,865.3450599999996,144.0,2.0,72.0,0.8480000000000001,3,0.3587905000003957,0.6257761000001665,0,0.3798428000000058,0.6794902999999977,7,1.3497729999999137,1.5331710999998904,,,69.0,51.0,67891,60.0,
-77,77,-45,1,13,29,4,,,,,,,,,,,session,874.0492758999999,144.0,2.0,72.0,0.8480000000000001,2,0.7648033999998916,1.0838807000000088,7,0.7701508000000103,1.0264695000000756,1,0.261282299999948,0.45704129999967336,,,63.0,66.0,67891,60.0,
-77,-77,45,1,14,30,14,,,,,,,,,,,session,882.6256549999998,132.0,2.0,72.0,0.8480000000000001,3,0.36470920000010665,0.6142374999999447,1,0.3766803999997137,0.7453135000000657,1,0.31537200000002485,0.763579700000264,,,54.0,57.0,67891,60.0,
77,77,90,1,15,31,3,,,,,,,,,,,session,890.3918779,150.0,2.0,72.0,0.8480000000000001,5,0.33268239999961224,0.6157799999996314,6,0.46550329999990936,0.6477909000000182,7,0.37123120000023846,0.6862224999999853,,,72.0,51.0,67891,60.0,
-77,-77,90,2,0,32,15,,,,,,,,,,,session,898.336448,126.0,2.0,72.0,0.8480000000000001,3,0.3451767000001382,0.6284562000000733,6,0.5572635999997146,0.7686018999997941,7,0.4192382000001089,0.7029093000001012,,,60.0,57.0,67891,60.0,
77,-77,0,2,1,33,9,,,,,,,,,,,session,905.9602605999999,174.0,2.0,72.0,0.8480000000000001,4,0.3820642999999109,0.6811704000001555,0,1.0810442000001785,1.3137597999998434,7,1.3677029000000402,1.5345045000003665,,,48.0,48.0,67891,60.0,
-77,77,90,2,2,34,7,,,,,,,,,,,session,915.4635567,138.0,2.0,72.0,0.8480000000000001,2,0.5931838000001335,1.0097412999998596,6,1.518578400000024,1.6854574999997567,7,1.2779205000001639,1.589234900000065,,,60.0,57.0,67891,60.0,
77,-77,-45,2,3,35,8,,,,,,,,,,,session,925.4413325999999,126.0,2.0,72.0,0.8480000000000001,4,0.5245942999999897,0.8416357999999491,7,0.4237506999998004,0.6558277999997699,6,1.7035526999998183,1.9030703999997058,,,72.0,63.0,67891,60.0,
77,77,-45,2,4,36,0,,,,,,,,,,,session,935.0610715999997,126.0,2.0,72.0,0.8480000000000001,5,1.3843371000002662,1.5510229999999865,7,0.6467856999997821,1.0166965999997046,7,0.6161458000001403,0.8991405000001578,,,57.0,72.0,67891,60.0,
77,-77,45,2,5,37,10,,,,,,,,,,,session,944.2344367999999,168.0,2.0,72.0,0.8480000000000001,4,0.3357728999999381,0.706572099999903,1,0.46147030000020095,0.7616179999999986,1,1.3157421999999315,1.5491581000001133,,,54.0,57.0,67891,60.0,
-77,77,45,2,6,38,6,,,,,,,,,,,session,953.8778365999997,174.0,2.0,72.0,0.8480000000000001,2,0.27794029999995473,0.6116441000003761,1,0.4132152000001952,0.6800491000003603,1,1.034940099999858,1.3511149999999361,,,60.0,57.0,67891,60.0,
-77,-77,-45,2,7,39,12,,,,,,,,,,,session,962.8155787999999,168.0,2.0,72.0,0.8480000000000001,3,0.9945244000000457,1.177968299999975,7,0.536599600000045,0.7147661999997581,7,0.5818644000000859,0.7484795000000304,,,48.0,57.0,67891,60.0,
-77,-77,-45,2,7,39,12,,,materials/instructions\12_break.png,971.5287917999999,992.2916358999996,0,20.561468500000046,20.76144780000004,0.01668229999995674,20.768988999999692,,,,,,,,,,,,,,,,,,,,67891,60.0,
-77,77,-45,2,8,40,4,,,,,,,,,,,session,992.3084346,174.0,2.0,72.0,0.8480000000000001,2,0.8898450000001503,1.0732810999998037,7,0.306031399999938,0.5236758000000918,7,1.0208851000002142,1.2376047000002472,,,66.0,54.0,67891,60.0,
-77,-77,45,2,9,41,14,,,,,,,,,,,session,1001.7949350999997,180.0,2.0,72.0,0.8480000000000001,3,0.3220698000000084,0.5055406000001312,1,0.5635676000001695,0.8621344000002864,1,1.2204730999997082,1.4033822999999757,,,63.0,66.0,67891,60.0,
-77,77,0,2,10,42,5,,,,,,,,,,,session,1011.1699721,180.0,2.0,72.0,0.8480000000000001,2,0.25712149999981193,0.45708939999985887,0,0.6272273000004134,0.8272303000003376,6,1.684451099999933,1.8668829000002916,,,60.0,54.0,67891,60.0,
77,-77,90,2,11,43,11,,,,,,,,,,,session,1021.2961212,138.0,2.0,72.0,0.8480000000000001,4,0.6296417000003203,0.7630629000000226,6,0.6636778000001868,0.8136491999998725,6,1.263135499999862,1.6447549999998046,,,60.0,57.0,67891,60.0,
-77,-77,0,2,12,44,13,,,,,,,,,,,session,1030.1999437,150.0,2.0,72.0,0.8480000000000001,3,0.28277029999981096,0.4663425999997344,0,0.6760465000002114,0.8428026999999929,7,1.457646300000306,2.081186400000206,,,69.0,63.0,67891,60.0,
77,77,0,2,13,45,1,,,,,,,,,,,session,1039.7474533999998,168.0,2.0,72.0,0.8480000000000001,5,0.6246266000002834,0.8771819000003234,0,0.6961444999997184,0.827994199999921,7,0.9349443000000974,1.0849637000001167,,,48.0,72.0,67891,60.0,
77,77,45,2,14,46,2,,,,,,,,,,,session,1048.798801,156.0,2.0,72.0,0.8480000000000001,5,0.846205700000155,1.3967130999999426,1,0.4751162999996268,1.1591988000000129,7,0.7601225999997041,0.9823014999997213,,,63.0,63.0,67891,60.0,
77,77,90,2,15,47,3,,,,,,,,,,,session,1058.4812032999998,150.0,2.0,72.0,0.8480000000000001,5,0.5080778999999893,0.8106158000000505,6,0.47205080000003363,0.6225222000002759,1,1.2831843999997545,1.6515800999995918,,,57.0,63.0,67891,60.0,
77,77,90,3,0,48,3,,,,,,,,,,,session,1067.8126253,174.0,2.0,72.0,0.8480000000000001,5,0.6079374999999345,0.7747715999998945,6,0.7939041999998153,0.9441548999998304,0,0.43471080000017537,0.6849643999998989,,,57.0,72.0,67891,60.0,
-77,-77,45,3,1,49,14,,,,,,,,,,,session,1076.7190452,126.0,2.0,72.0,0.8480000000000001,3,0.35783420000007027,0.5746601999999257,1,0.5554597000000285,0.7356976000000941,7,0.7528880999998364,1.0000460000001112,,,63.0,60.0,67891,60.0,
-77,77,45,3,2,50,6,,,,,,,,,,,session,1084.9978945999997,156.0,2.0,72.0,0.8480000000000001,2,0.7654703999996855,0.9489058999997724,1,0.8386772000003475,1.08887279999999,7,0.8517791999997826,1.0723269999998593,,,63.0,57.0,67891,60.0,
77,-77,0,3,3,51,9,,,,,,,,,,,session,1094.1536020999997,138.0,2.0,72.0,0.8480000000000001,4,0.7311658000003263,0.8642303000001448,0,0.7616601999998238,0.8944261999999981,7,1.0318098000002465,1.2320105000003423,,,51.0,54.0,67891,60.0,
77,-77,-45,3,4,52,8,,,,,,,,,,,session,1102.6482555999996,174.0,2.0,72.0,0.8480000000000001,4,0.5588994000004277,0.924509300000409,7,0.5075861999998779,0.6886481999999887,7,0.8373434000000088,1.0040141999998013,,,66.0,51.0,67891,60.0,
77,77,0,3,5,53,1,,,,,,,,,,,session,1111.8798085999997,180.0,2.0,72.0,0.8480000000000001,5,0.49626779999971404,0.6963823999999477,0,0.49836429999959364,0.7478180999996766,7,0.45422340000004624,0.6201085000002422,,,66.0,72.0,67891,60.0,
-77,77,0,3,6,54,5,,,,,,,,,,,session,1120.6857370999996,156.0,2.0,72.0,0.8480000000000001,2,0.6092139000002135,0.7639205999998921,0,0.711227300000246,0.89086240000006,6,1.2670634999999493,1.4170819000000847,,,57.0,57.0,67891,60.0,
77,77,-45,3,7,55,0,,,,,,,,,,,session,1130.0447691,150.0,2.0,72.0,0.8480000000000001,5,0.648344900000211,0.8987176000000545,7,0.2968959999998333,0.5471689000000879,7,0.2704022999996596,0.45384799999965253,,,69.0,72.0,67891,60.0,
77,77,45,3,8,56,2,,,,,,,,,,,session,1138.2355837,168.0,2.0,72.0,0.8480000000000001,5,0.4116853999998966,0.595213000000058,1,0.3120466000000306,0.7455709000000752,6,0.31358929999987595,0.4971423000001778,,,57.0,48.0,67891,60.0,
77,-77,45,3,9,57,10,,,,,,,,,,,session,1146.0651761,180.0,2.0,72.0,0.8480000000000001,4,1.5728321999999935,1.739571000000069,1,0.8258725000000595,1.0265426000000843,7,0.6346856000000116,0.784969600000295,,,60.0,54.0,67891,60.0,
-77,77,90,3,10,58,7,,,,,,,,,,,session,1156.4297010999999,126.0,2.0,72.0,0.8480000000000001,2,0.36458940000011353,0.5480446000001393,6,0.862536099999943,0.9624508000001697,7,0.7878104999999778,0.9211440999997649,,,60.0,54.0,67891,60.0,
-77,-77,90,3,11,59,15,,,,,,,,,,,session,1164.3197633,132.0,2.0,72.0,0.8480000000000001,3,0.37516039999991335,0.5532173000001421,6,0.37871820000009393,0.5913458999998511,7,0.6022088999998232,0.8022289000000455,,,60.0,72.0,67891,60.0,
-77,-77,90,3,11,59,15,,,materials/instructions\12_break.png,1172.2698133999997,1191.0886126999999,0,18.588632799999687,18.816791999999623,0.023309799999879033,18.8292107999996,,,,,,,,,,,,,,,,,,,,67891,60.0,
-77,-77,-45,3,12,60,12,,,,,,,,,,,session,1191.1098659999998,150.0,2.0,72.0,0.8480000000000001,3,1.0834082999999737,1.2501442000002498,7,0.6571143999999549,0.822248099999797,7,0.6194391000003634,0.7695615000002363,,,57.0,60.0,67891,60.0,
-77,77,-45,3,13,61,4,,,,,,,,,,,session,1200.1812203,126.0,2.0,72.0,0.8480000000000001,2,1.3952205999999023,1.5468997000002673,7,0.6967611000000034,0.8792481999998927,7,0.536606799999845,0.7541141000001517,,,69.0,57.0,67891,60.0,
77,-77,90,3,14,62,11,,,,,,,,,,,session,1209.0047691,162.0,2.0,72.0,0.8480000000000001,4,0.5353426000001491,0.7561541999998553,6,0.37870299999985946,0.5304829000001519,7,1.106938899999932,1.2727678999999625,,,60.0,57.0,67891,60.0,
-77,-77,0,3,15,63,13,,,,,,,,,,,session,1217.9640236,174.0,2.0,72.0,0.8480000000000001,3,0.3622096999997666,0.6654641000000083,0,0.49755729999969844,0.7989048999997976,7,1.1048491999999897,1.2715094999998655,,,69.0,48.0,67891,60.0,
-77,77,-45,4,0,64,4,,,,,,,,,,,session,1226.9833111999997,180.0,2.0,72.0,0.8480000000000001,2,0.9188303000000815,1.0493543000002319,7,0.3412836000002244,0.9698662000000695,7,0.7962982000003649,1.0128380999999536,,,69.0,54.0,67891,60.0,
-77,-77,0,4,1,65,13,,,,,,,,,,,session,1236.5488428999997,138.0,2.0,72.0,0.8480000000000001,3,0.34787139999980354,0.5313204999997652,0,0.4187810999997055,0.6060050000000956,7,0.8684163000002627,1.035896700000194,,,63.0,60.0,67891,60.0,
77,77,-45,4,2,66,0,,,,,,,,,,,session,1244.5151876,168.0,2.0,72.0,0.8480000000000001,5,0.7962154000001647,0.9463387999999213,7,0.7791494000002785,0.9461746000001767,7,1.6354780000001483,1.8355452999999216,,,57.0,63.0,67891,60.0,
-77,77,90,4,3,67,7,,,,,,,,,,,session,1254.4875803,150.0,2.0,72.0,0.8480000000000001,2,0.9733420000002297,1.142624000000069,6,0.8623772999999346,1.02919380000003,7,0.9647009000000253,1.132802399999946,,,63.0,72.0,67891,60.0,
-77,-77,-45,4,4,68,12,,,,,,,,,,,session,1264.6313344999999,174.0,2.0,72.0,0.8480000000000001,3,0.3279029000000264,0.6144248999999036,7,0.6299965000002885,0.9462991000000329,6,0.8227958000002218,1.0728497000000061,,,60.0,66.0,67891,60.0,
-77,77,45,4,5,69,6,,,,,,,,,,,session,1273.7209042999998,150.0,2.0,72.0,0.8480000000000001,2,0.8027569999999287,0.9702473000002101,1,0.37479679999978543,0.6326035000001866,1,0.35300980000010895,0.48777549999977055,,,66.0,48.0,67891,60.0,
77,77,45,4,6,70,2,,,,,,,,,,,session,1281.667238,150.0,2.0,72.0,0.8480000000000001,5,0.5139455000003181,0.7320618000003378,1,0.41193939999993745,0.9805184000001645,6,0.3374231999996482,0.5383351999998922,,,57.0,72.0,67891,60.0,
77,77,0,4,7,71,1,,,,,,,,,,,session,1290.0155654,126.0,2.0,72.0,0.8480000000000001,5,0.31419770000002245,0.5982188999996652,0,0.4110553999998956,1.0780457999999271,7,1.4027239000001828,1.7029373000000305,,,63.0,60.0,67891,60.0,
77,-77,90,4,8,72,11,,,,,,,,,,,session,1298.9893908999998,144.0,2.0,72.0,0.8480000000000001,4,0.6539766000000782,1.114642300000014,6,0.778998099999626,0.9623383999996804,6,1.070134699999926,1.3859826000002613,,,57.0,54.0,67891,60.0,
77,77,90,4,9,73,3,,,,,,,,,,,session,1308.7815410999997,144.0,2.0,72.0,0.8480000000000001,5,0.33185739999998987,0.4653459000001021,6,0.5997600000000602,0.799688700000388,6,1.0870640000002822,1.2381287000002885,,,54.0,48.0,67891,60.0,
-77,-77,90,4,10,74,15,,,,,,,,,,,session,1316.8202698,168.0,2.0,72.0,0.8480000000000001,3,0.40535189999991417,0.6056032000001323,6,0.5545627999999851,0.7714043999999376,7,1.0647235000001274,1.2450017000001026,,,66.0,63.0,67891,60.0,
-77,77,0,4,11,75,5,,,,,,,,,,,session,1325.8632985999998,168.0,2.0,72.0,0.8480000000000001,2,0.3561835999998948,0.4731351000000359,0,0.39515990000018064,0.6617336000003888,7,0.9472037000000455,1.0974590000000717,,,54.0,66.0,67891,60.0,
77,-77,45,4,12,76,10,,,,,,,,,,,session,1334.3652275999998,180.0,2.0,72.0,0.8480000000000001,4,0.6080677999998443,0.7580855999999585,1,0.532499899999948,0.6992391000003408,7,1.1547898999997415,1.3047747999999046,,,63.0,63.0,67891,60.0,
77,-77,0,4,13,77,9,,,,,,,,,,,session,1343.6734278999998,150.0,2.0,72.0,0.8480000000000001,4,0.3573182000000088,0.6910654000002978,0,0.41186000000016065,0.6957072000000153,7,0.8180062000001271,1.0181976000003488,,,63.0,57.0,67891,60.0,
77,-77,-45,4,14,78,8,,,,,,,,,,,session,1352.8338482999998,138.0,2.0,72.0,0.8480000000000001,4,0.6200340999998843,0.7870491999997284,7,0.44497960000035164,0.7451132000001053,7,0.5375690000000759,0.8055211999999301,,,72.0,66.0,67891,60.0,
-77,-77,45,4,15,79,14,,,,,,,,,,,session,1361.2379136999998,174.0,2.0,72.0,0.8480000000000001,3,0.3653125999999247,0.5325302999999622,1,1.5604960000000574,1.739968900000349,7,0.6298692000000301,0.8624997000001713,,,63.0,54.0,67891,60.0,
-77,-77,45,4,15,79,14,,,materials/instructions\12_break.png,1370.6833336,1377.8975857,0,7.047350300000289,7.212244400000145,0.015595000000303116,7.219881400000304,,,,,,,,,,,,,,,,,,,,67891,60.0,
-77,-77,-45,5,0,80,12,,,,,,,,,,,session,1377.9137618,162.0,2.0,72.0,0.8480000000000001,3,0.37294410000004063,0.5564621999997144,7,0.39802659999986645,0.6286919999997735,7,0.45543610000004264,0.7721430999999939,,,69.0,48.0,67891,60.0,
77,77,90,5,1,81,3,,,,,,,,,,,session,1385.9721839999997,168.0,2.0,72.0,0.8480000000000001,5,0.23627739999983532,0.474014200000056,6,0.4769974999999249,0.6773249000002579,7,0.4837310000002617,0.6838876000001619,,,51.0,60.0,67891,60.0,
-77,77,90,5,2,82,7,,,,,,,,,,,session,1394.3997239,156.0,2.0,72.0,0.8480000000000001,2,0.3161776000001737,0.4986001000002034,6,0.3613666999999623,0.5948398999998972,7,0.7516296000003422,1.1015234999999848,,,72.0,54.0,67891,60.0,
77,77,45,5,3,83,2,,,,,,,,,,,session,1402.7682538,126.0,2.0,72.0,0.8480000000000001,5,0.5293922999999268,0.7953268999999636,1,0.9456247999996776,1.5132070999998177,7,0.543663800000104,0.7938245999998799,,,51.0,60.0,67891,60.0,
-77,-77,45,5,4,84,14,,,,,,,,,,,session,1411.2667632999996,126.0,2.0,72.0,0.8480000000000001,3,0.5234804999995504,0.7230275999995683,1,0.377220600000328,0.6292693999998846,7,0.567704799999774,0.8002557999998317,,,60.0,51.0,67891,60.0,
77,77,-45,5,5,85,0,,,,,,,,,,,session,1419.3142177999998,126.0,2.0,72.0,0.8480000000000001,5,1.7624289999998837,2.0968147000003228,7,0.7416996000001745,0.9750718000000234,6,0.5506989000000431,0.7008523999998033,,,63.0,63.0,67891,60.0,
-77,77,45,5,6,86,6,,,,,,,,,,,session,1428.7258245999997,180.0,2.0,72.0,0.8480000000000001,2,0.38881560000027093,0.7171355000000403,1,0.4773883999996542,0.7606486999998197,1,0.0116704000001846,0.013584300000275107,,,72.0,48.0,67891,60.0,
-77,-77,90,5,7,87,15,,,,,,,,,,,session,1436.9105685,144.0,2.0,72.0,0.8480000000000001,3,0.3438384999999471,0.49618969999983165,6,1.2705681000002187,1.4534828000000743,7,0.4714478999999301,0.7043174999998882,,,54.0,51.0,67891,60.0,
77,-77,-45,5,8,88,8,,,,,,,,,,,session,1445.1495560999997,126.0,2.0,72.0,0.8480000000000001,4,0.8033005999996021,1.0530706999998074,7,1.4637797000000319,1.6451348000000507,7,0.750089200000275,0.9502346000003854,,,54.0,63.0,67891,60.0,
77,-77,45,5,9,89,10,,,,,,,,,,,session,1454.2910426999997,132.0,2.0,72.0,0.8480000000000001,4,1.1203270999999404,1.3205827999995563,1,0.8332445000000916,1.1351528999998663,7,0.465369400000327,0.7336758999999802,,,57.0,69.0,67891,60.0,
77,77,0,5,10,90,1,,,,,,,,,,,session,1463.8820643,168.0,2.0,72.0,0.8480000000000001,5,1.1109510999999657,1.360287800000151,0,1.0116870000001654,1.3954147000004014,6,1.466673400000218,1.6825521999999182,,,48.0,51.0,67891,60.0,
-77,77,0,5,11,91,5,,,,,,,,,,,session,1474.2215873999999,138.0,2.0,72.0,0.8480000000000001,2,0.5068246999999246,0.7235475999996197,0,0.3764517999998134,0.6767153999999209,6,1.0335457000001043,1.2191669000003458,,,69.0,69.0,67891,60.0,
-77,77,-45,5,12,92,4,,,,,,,,,,,session,1483.3164531999996,168.0,2.0,72.0,0.8480000000000001,2,0.4191074000000299,0.5696212000002561,7,0.5969623999999385,0.815801000000647,7,0.5366287000006196,0.7358324000006178,,,60.0,69.0,67891,60.0,
-77,-77,0,5,13,93,13,,,,,,,,,,,session,1491.8352227999999,126.0,2.0,72.0,0.8480000000000001,3,0.2963128000001234,0.4651672999998482,0,0.49648119999983464,0.7310198000004675,7,0.783710699999574,0.9677710999994815,,,48.0,63.0,67891,60.0,
77,-77,90,5,14,94,11,,,,,,,,,,,session,1499.4085580999995,180.0,2.0,72.0,0.8480000000000001,4,0.8577492000003986,1.124565099999927,6,1.2549017999999705,1.4571968999998717,7,1.135670200000277,1.3029623000002175,,,60.0,72.0,67891,60.0,
77,-77,0,5,15,95,9,,,,,,,,,,,session,1510.5509932,168.0,2.0,72.0,0.8480000000000001,4,0.4098035999995773,0.6923882000000958,0,0.377562300000136,0.6125049000002036,7,0.2854512000003524,0.5006195000005391,,,48.0,72.0,67891,60.0,
77,77,-45,6,0,96,0,,,,,,,,,,,session,1518.6038932999995,150.0,2.0,72.0,0.8480000000000001,5,0.6303312000000005,1.101187100000061,7,0.4784021000004941,0.7482277000008253,7,0.6651357000000644,1.215147199999592,,,69.0,51.0,67891,60.0,
77,-77,90,6,1,97,11,,,,,,,,,,,session,1527.9310954999996,162.0,2.0,72.0,0.8480000000000001,4,0.5786323000002085,0.8121252999999342,6,0.6146751999995104,0.848200899999938,6,0.6860953999994308,0.9528887999995277,,,66.0,60.0,67891,60.0,
-77,77,0,6,2,98,5,,,,,,,,,,,session,1536.8024978999997,174.0,2.0,72.0,0.8480000000000001,2,0.36219399999936286,0.5956890999996176,0,0.5506076000001485,0.8519503999996232,6,0.879474599999412,1.0520302999993874,,,72.0,60.0,67891,60.0,
-77,-77,0,6,3,99,13,,,,,,,,,,,session,1545.8532552000001,180.0,2.0,72.0,0.8480000000000001,3,0.32282279999981256,0.45719780000035826,0,0.48678339999969467,0.7542763999999806,6,0.8183029000001625,1.001768600000105,,,66.0,69.0,67891,60.0,
-77,-77,0,6,3,99,13,,,materials/instructions\12_break.png,1554.7933163000002,1581.6011415999997,0,26.6059307000005,26.805825499999628,0.024348400000235415,26.813551999999618,,,,,,,,,,,,,,,,,,,,67891,60.0,
77,77,45,6,4,100,2,,,,,,,,,,,session,1581.6168968999996,132.0,2.0,72.0,0.8480000000000001,5,0.8240986999999222,0.9908949000000575,1,0.3555703000001813,0.566094300000259,7,0.8137226999997438,0.9644553999996788,,,66.0,48.0,67891,60.0,
77,-77,0,6,5,101,9,,,,,,,,,,,session,1589.7024207,156.0,2.0,72.0,0.8480000000000001,4,0.7230570000001535,1.0867819999994026,0,0.328975200000059,0.5801516999999876,6,0.3863853000002564,0.45276560000002064,,,63.0,63.0,67891,60.0,
-77,77,90,6,6,102,7,,,,,,,,,,,session,1598.0491710000001,162.0,2.0,72.0,0.8480000000000001,2,0.3647315999996863,0.6130196000003707,6,0.6390273000006346,0.7678503000006458,1,0.3075683000006393,0.4908918999999514,,,54.0,66.0,67891,60.0,
77,-77,-45,6,7,103,8,,,,,,,,,,,session,1606.0730907000002,150.0,2.0,72.0,0.8480000000000001,4,0.8995026999991751,1.1163053000000218,7,0.3276436999994985,0.5930117999996583,1,0.6806358000003456,1.0139420000004975,,,66.0,48.0,67891,60.0,
-77,77,45,6,8,104,6,,,,,,,,,,,session,1614.7808651,168.0,2.0,72.0,0.8480000000000001,2,0.825761600000078,0.9923625000001266,1,1.0820739000000685,1.3177353999999468,7,0.34956139999940206,0.5504069999997228,,,48.0,54.0,67891,60.0,
-77,77,-45,6,9,105,4,,,,,,,,,,,session,1623.5872255999998,132.0,2.0,72.0,0.8480000000000001,2,0.36448380000001634,0.5646022999999332,7,0.34598840000035125,0.5472085000001243,6,0.4520007999999507,0.618513499999608,,,54.0,72.0,67891,60.0,
77,-77,45,6,10,106,10,,,,,,,,,,,session,1631.0447061,144.0,2.0,72.0,0.8480000000000001,4,0.623680400000012,0.9744135999999344,1,0.4910626000000775,0.7083673999995881,7,0.2853990999992675,0.43541279999953986,,,63.0,60.0,67891,60.0,
-77,-77,-45,6,11,107,12,,,,,,,,,,,session,1639.8541265,168.0,2.0,72.0,0.8480000000000001,3,0.3534668000002057,0.5226425000000745,7,0.3956551000001127,0.5956425999993371,6,0.5031501000003118,0.6874215999996522,,,72.0,51.0,67891,60.0,
-77,-77,90,6,12,108,15,,,,,,,,,,,session,1647.9380581,138.0,2.0,72.0,0.8480000000000001,3,0.3474270000006072,0.5142318000007435,6,0.5899914999999964,0.7567183000001023,7,0.3290071999999782,0.5077758999996149,,,66.0,69.0,67891,60.0,
77,77,0,6,13,109,1,,,,,,,,,,,session,1655.7142809000002,180.0,2.0,72.0,0.8480000000000001,5,0.5642793999995774,0.7642157999998744,0,0.4626729999999952,0.6794091000001572,7,0.9342979000002742,1.0834277000003567,,,57.0,57.0,67891,60.0,
-77,-77,45,6,14,110,14,,,,,,,,,,,session,1664.7335171,144.0,2.0,72.0,0.8480000000000001,3,0.3486910000001444,0.5488148000004003,1,0.6209576000001107,0.8370193000000654,7,0.33769759999995586,0.5377486999996108,,,51.0,48.0,67891,60.0,
77,77,90,6,15,111,3,,,,,,,,,,,session,1672.1555954,162.0,2.0,72.0,0.8480000000000001,5,0.32483270000011544,0.4749646999998731,6,0.5721708000000945,0.6926930999998149,7,0.7120898000002853,0.8484262000001763,,,60.0,51.0,67891,60.0,
77,77,45,7,0,112,2,,,,,,,,,,,session,1680.1696369999995,132.0,2.0,72.0,0.8480000000000001,5,0.36711689999992814,0.5160044000003836,1,0.49469649999991816,0.9265642999998818,7,0.45275260000016715,0.6195514999999432,,,51.0,72.0,67891,60.0,
-77,-77,45,7,1,113,14,,,,,,,,,,,session,1687.9178476000002,126.0,2.0,72.0,0.8480000000000001,3,0.2821205000000191,0.5143203999996331,1,0.5297479999999268,0.6964615999995658,7,0.28331370000069,0.4999594999999317,,,60.0,60.0,67891,60.0,
-77,-77,0,7,2,114,13,,,,,,,,,,,session,1695.1731235000002,156.0,2.0,72.0,0.8480000000000001,3,0.3361863000000085,0.5241066999997201,0,0.7582680000004984,0.9113960000004226,7,0.5375432000000728,0.7209681000003911,,,63.0,69.0,67891,60.0,
77,77,90,7,3,115,3,,,,,,,,,,,session,1704.0333127,174.0,2.0,72.0,0.8480000000000001,5,0.311486500000683,0.47824149999996735,6,0.5133159999995769,0.6970594999993409,7,0.670020100000329,0.8367600000001403,,,48.0,60.0,67891,60.0,
-77,-77,90,7,4,116,15,,,,,,,,,,,session,1712.202831,162.0,2.0,72.0,0.8480000000000001,3,0.34717600000021775,0.5307272000000012,6,0.7291691000000355,0.8787560000000667,7,0.465894500000104,0.6424542000004294,,,72.0,69.0,67891,60.0,
77,-77,-45,7,5,117,8,,,,,,,,,,,session,1720.7469268,144.0,2.0,72.0,0.8480000000000001,4,0.3917276000001948,0.692078400000355,7,0.42501240000001417,0.6251121000004787,7,0.884231600000021,1.0669770000004064,,,72.0,69.0,67891,60.0,
-77,77,90,7,6,118,7,,,,,,,,,,,session,1729.7829252999995,150.0,2.0,72.0,0.8480000000000001,2,0.9305586000000403,1.0639699999992445,6,0.361003900000469,0.6119834000000992,7,0.5012208999996801,0.6862019999998665,,,69.0,69.0,67891,60.0,
77,77,0,7,7,119,1,,,,,,,,,,,session,1738.3929734999997,168.0,2.0,72.0,0.8480000000000001,5,0.6054201999995712,0.7608012000000599,0,0.6713849999996455,0.9109615999996095,6,0.9339122999999745,1.0014704999994137,,,60.0,72.0,67891,60.0,
77,77,0,7,7,119,1,,,materials/instructions\12_break.png,1747.6126727999995,1761.0713529999998,0,13.056118599999536,13.456567499999437,0.021854999999959546,13.464168299999983,,,,,,,,,,,,,,,,,,,,67891,60.0,
-77,-77,-45,7,8,120,12,,,,,,,,,,,session,1761.0869315999994,144.0,2.0,72.0,0.8480000000000001,3,0.42910699999993085,0.5843598000001293,7,0.6421366000004127,0.7759045000002516,7,0.2802854000001389,0.4805924000002051,,,57.0,63.0,67891,60.0,
-77,77,45,7,9,121,6,,,,,,,,,,,session,1768.9508725,168.0,2.0,72.0,0.8480000000000001,2,0.3425717000000077,0.5761019000001397,1,0.4127351000006456,0.7141830000000482,1,0.4344472000002497,0.718044799999916,,,51.0,54.0,67891,60.0,
77,-77,45,7,10,122,10,,,,,,,,,,,session,1776.9700963,162.0,2.0,72.0,0.8480000000000001,4,0.7774013000007471,1.1295254000006025,1,0.39338259999931324,0.6258981999999378,6,0.3332207000003109,0.5001669000002948,,,48.0,72.0,67891,60.0,
-77,77,-45,7,11,123,4,,,,,,,,,,,session,1785.3756425999995,162.0,2.0,72.0,0.8480000000000001,2,0.6029356999997617,0.8223304999992251,7,0.32679640000060317,0.758687600000485,6,0.2958915999997771,0.49627070000042295,,,48.0,60.0,67891,60.0,
77,77,-45,7,12,124,0,,,,,,,,,,,session,1794.0049239999994,162.0,2.0,72.0,0.8480000000000001,5,0.5434325999995053,0.6929554999996981,7,0.31086039999991044,0.47869100000025355,6,1.0029208999994808,1.2358153999994101,,,72.0,48.0,67891,60.0,
77,-77,90,7,13,125,11,,,,,,,,,,,session,1802.5719562999998,126.0,2.0,72.0,0.8480000000000001,4,0.445568899999671,1.1946361000000252,6,0.4554032999994888,0.6458464999996067,7,0.7262041000003592,0.9265520999997534,,,69.0,57.0,67891,60.0,
77,-77,0,7,14,126,9,,,,,,,,,,,session,1810.9996822999997,180.0,2.0,72.0,0.8480000000000001,4,0.5104307000001427,0.6769583000004786,0,0.563537300000462,0.7631351999998515,7,0.4834510999999111,0.6696562999995876,,,57.0,54.0,67891,60.0,
-77,77,0,7,15,127,5,,,,,,,,,,,session,1819.4210394999996,144.0,2.0,72.0,0.8480000000000001,2,0.7803106999999727,0.9292273000000932,0,0.4603283999995256,0.8772171000000526,7,0.3205945999998221,0.45407740000064223,,,66.0,48.0,67891,60.0,
-77,-77,45,8,0,128,14,,,,,,,,,,,session,1827.4083748999997,168.0,2.0,72.0,0.8480000000000001,3,0.011028799999621697,0.012915699999211938,1,0.742304299999887,0.9589021000001594,6,1.1373272000000725,1.3187004999999772,,,63.0,66.0,67891,60.0,
77,77,0,8,1,129,1,,,,,,,,,,,session,1836.3009662999998,162.0,2.0,72.0,0.8480000000000001,5,0.9419005999998262,1.1263288999998622,0,1.2650808999997025,1.4819483999999647,7,0.8334097000006295,1.2336615000003803,,,63.0,57.0,67891,60.0,
77,77,90,8,2,130,3,,,,,,,,,,,session,1846.2716330999997,156.0,2.0,72.0,0.8480000000000001,5,0.51279329999943,0.6462203999999474,6,0.31294900000011694,0.4966026000001875,7,1.1135174000000916,1.280313300000671,,,57.0,48.0,67891,60.0,
77,77,-45,8,3,131,0,,,,,,,,,,,session,1854.5201927000003,132.0,2.0,72.0,0.8480000000000001,5,0.4249961000004987,0.5583567000003313,7,0.4137155000007624,0.5458859000000302,7,0.6337914999994609,0.7838352999997369,,,60.0,51.0,67891,60.0,
-77,77,45,8,4,132,6,,,,,,,,,,,session,1862.0845257999995,138.0,2.0,72.0,0.8480000000000001,2,0.33517959999971936,0.4825992000005499,1,0.5642760000000635,0.7144358000005013,7,0.9039092000002711,1.1030203999998776,,,63.0,72.0,67891,60.0,
77,-77,45,8,5,133,10,,,,,,,,,,,session,1870.3729252999997,162.0,2.0,72.0,0.8480000000000001,4,0.28311940000003233,0.4904791999997542,1,1.125014100000044,1.3363770999994813,7,0.5687783000003037,0.7663333000000421,,,60.0,54.0,67891,60.0,
-77,-77,0,8,6,134,13,,,,,,,,,,,session,1879.0346454999994,180.0,2.0,72.0,0.8480000000000001,3,0.35549540000010893,0.5379596000002493,0,0.47961230000055366,0.6460809999998673,7,0.4858970999994199,0.6184104999992996,,,51.0,63.0,67891,60.0,
77,-77,0,8,7,135,9,,,,,,,,,,,session,1887.2036673999996,132.0,2.0,72.0,0.8480000000000001,4,0.2995857999994769,0.5322448999995686,0,0.3686107000003176,0.5700080000005983,7,0.5709494000002451,0.7217534999999771,,,57.0,48.0,67891,60.0,
-77,-77,-45,8,8,136,12,,,,,,,,,,,session,1894.4092594999997,126.0,2.0,72.0,0.8480000000000001,3,0.4035440000006929,0.5749791000007463,7,0.6128503999998429,0.7465948999997636,7,0.349878400000307,0.5187442999995255,,,54.0,57.0,67891,60.0,
-77,-77,90,8,9,137,15,,,,,,,,,,,session,1901.9540784999995,162.0,2.0,72.0,0.8480000000000001,3,0.3280380999995032,0.49501779999991413,6,0.4319033000001582,0.58210870000039,7,0.6473085999996329,0.7975944999998319,,,69.0,60.0,67891,60.0,
-77,77,-45,8,10,138,4,,,,,,,,,,,session,1910.1371988999995,126.0,2.0,72.0,0.8480000000000001,2,0.47980050000023766,0.6115401000006386,7,0.29727569999977277,0.4475613999993584,7,0.4554465999999593,0.6055051000003004,,,63.0,54.0,67891,60.0,
-77,77,0,8,11,139,5,,,,,,,,,,,session,1917.3110759999995,168.0,2.0,72.0,0.8480000000000001,2,0.011679600000206847,0.01354559999981575,0,0.8776869000002989,1.0109776999997848,7,0.2064258999998856,0.35640929999954096,,,51.0,66.0,67891,60.0,
-77,77,0,8,11,139,5,,,materials/instructions\12_break.png,1925.5959949000003,1927.1668329999998,0,1.3687206999993577,1.5687615999995614,0.023590400000102818,1.5751178000000436,,,,,,,,,,,,,,,,,,,,67891,60.0,
77,77,45,8,12,140,2,,,,,,,,,,,session,1927.1814131999995,126.0,2.0,72.0,0.8480000000000001,5,0.6266491999995196,0.8269163999993907,1,1.0783794999997554,1.2620145999999295,7,0.2843941999999515,0.45077349999974103,,,48.0,66.0,67891,60.0,
77,-77,90,8,13,141,11,,,,,,,,,,,session,1935.1729653999996,180.0,2.0,72.0,0.8480000000000001,4,0.2908455999995567,0.5266027999996368,6,0.3653679999997621,0.5086861999998291,7,0.3117799000001469,0.46217280000018945,,,48.0,54.0,67891,60.0,
77,-77,-45,8,14,142,8,,,,,,,,,,,session,1942.8376505,138.0,2.0,72.0,0.8480000000000001,4,0.3437498000002961,0.6604299000000537,7,0.342728900000111,0.5095688999999766,7,0.3196382000005542,0.45326050000039686,,,54.0,51.0,67891,60.0,
-77,77,90,8,15,143,7,,,,,,,,,,,session,1950.1688337,174.0,2.0,72.0,0.8480000000000001,2,0.9476149000001897,1.0981007999998837,6,0.45963080000001355,0.6269430000002103,1,0.449677900000097,0.7833630999994057,,,69.0,54.0,67891,60.0,
77,77,90,9,0,144,3,,,,,,,,,,,session,1959.0764402999998,126.0,2.0,72.0,0.8480000000000001,5,0.33337739999933547,0.46676229999957286,6,0.4868039000002682,0.6209800000005998,6,0.2543932999997196,0.422105399999964,,,57.0,66.0,67891,60.0,
-77,77,0,9,1,145,5,,,,,,,,,,,session,1966.1876994,144.0,2.0,72.0,0.8480000000000001,2,0.19713169999977254,0.41601210000044375,0,0.7110245999992912,0.9112054999995962,7,0.27237650000006397,0.4205807000007553,,,69.0,48.0,67891,60.0,
-77,77,45,9,2,146,6,,,,,,,,,,,session,1973.7354134000002,162.0,2.0,72.0,0.8480000000000001,2,0.4154209999996965,0.5487276000003476,1,1.1005248000001302,1.2487315999997008,7,0.6167018000005555,0.7693685000003825,,,69.0,63.0,67891,60.0,
77,-77,0,9,3,147,9,,,,,,,,,,,session,1982.6449239999997,168.0,2.0,72.0,0.8480000000000001,4,1.3739298999998937,1.6207359999998516,0,0.38143529999979364,0.8316485000004832,7,0.38108310000006895,0.967594900000222,,,51.0,51.0,67891,60.0,
-77,77,90,9,4,148,7,,,,,,,,,,,session,1992.5224463999998,174.0,2.0,72.0,0.8480000000000001,2,0.46258530000068276,0.6462907000004634,6,0.5683476999993218,0.7343258999999307,6,0.2031501000001299,0.43670380000003206,,,48.0,72.0,67891,60.0,
-77,-77,90,9,5,149,15,,,,,,,,,,,session,2000.6902331999995,132.0,2.0,72.0,0.8480000000000001,3,0.24509979999947973,0.6445710999996663,6,0.38077459999931307,0.5139737999998033,7,0.053556599999865284,0.3087895999997272,,,54.0,69.0,67891,60.0,
77,77,-45,9,6,150,0,,,,,,,,,,,session,2007.8503538,144.0,2.0,72.0,0.8480000000000001,5,0.27202159999978903,0.40758439999990514,7,0.31228009999995265,0.4622158000001946,7,0.33189990000028047,0.48164009999982227,,,54.0,63.0,67891,60.0,
77,-77,45,9,7,151,10,,,,,,,,,,,session,2015.5370565999997,162.0,2.0,72.0,0.8480000000000001,4,0.36445259999982227,0.5144626999999673,1,1.2632849000001443,1.4290525999995225,7,0.3348637000008239,0.5526959000007992,,,60.0,48.0,67891,60.0,
77,-77,-45,9,8,152,8,,,,,,,,,,,session,2023.9747788,144.0,2.0,72.0,0.8480000000000001,4,0.266318300000421,0.4187576000003901,7,0.3096200999998473,0.5264821000000666,7,0.05544890000055602,0.2813874000003125,,,54.0,66.0,67891,60.0,
77,77,0,9,9,153,1,,,,,,,,,,,session,2031.0546418,168.0,2.0,72.0,0.8480000000000001,5,0.32668310000008205,0.5268534999995609,0,0.40952569999990374,0.823662200000399,1,0.3199101000000155,0.8696018000000549,,,72.0,63.0,67891,60.0,
-77,77,-45,9,10,154,4,,,,,,,,,,,session,2040.0707650999998,174.0,2.0,72.0,0.8480000000000001,2,0.43123019999984535,0.6333309000001464,7,0.36130320000029315,0.6122621000004074,7,0.10234339999988151,0.23499029999948107,,,60.0,54.0,67891,60.0,
77,77,45,9,11,155,2,,,,,,,,,,,session,2047.7908548,180.0,2.0,72.0,0.8480000000000001,5,0.5443519000000379,0.7438893999997163,1,0.28852530000040133,0.6424864000000525,7,0.1654075999995257,0.3686944000000949,,,48.0,51.0,67891,60.0,
-77,-77,-45,9,12,156,12,,,,,,,,,,,session,2055.8391527,150.0,2.0,72.0,0.8480000000000001,3,0.3107718000001114,0.7089324999997189,7,0.37914900000032503,0.612736699999914,7,0.5716068000001542,0.8728554999997868,,,57.0,69.0,67891,60.0,
-77,-77,45,9,13,157,14,,,,,,,,,,,session,2064.1070513,174.0,2.0,72.0,0.8480000000000001,3,0.49832770000011806,0.6806500000002416,1,1.315559800000301,1.5157943000003797,7,0.3025416000000405,0.5860794000000169,,,63.0,60.0,67891,60.0,
-77,-77,0,9,14,158,13,,,,,,,,,,,session,2073.2770961,180.0,2.0,72.0,0.8480000000000001,3,0.30976150000060443,0.4602044000002934,0,0.49925270000039745,0.646861700000045,7,0.7170836000004783,0.9172838000004049,,,66.0,57.0,67891,60.0,
77,-77,90,9,15,159,11,,,,,,,,,,,session,2082.3561647,168.0,2.0,72.0,0.8480000000000001,4,0.3152848999998241,0.4977814000003491,6,0.5797652999999627,0.7615104000005886,7,0.785683500000232,0.9692385000007562,,,69.0,54.0,67891,60.0,
77,-77,90,9,15,159,11,,,materials/instructions\12_break.png,2090.9026480999996,2118.6448106000003,0,27.556987999999365,27.740430500000002,0.023346300000412157,27.75357560000066,,,,,,,,,,,,,,,,,,,,67891,60.0,
-77,-77,-45,10,0,160,12,,,,,,,,,,,session,2118.6670977,162.0,2.0,72.0,0.8480000000000001,3,0.5270727000006445,0.9756014000004143,7,0.32836760000009235,0.7776508000006288,7,0.3374988999994457,0.5046290999998746,,,63.0,72.0,67891,60.0,
77,77,0,10,1,161,1,,,,,,,,,,,session,2127.7874833,138.0,2.0,72.0,0.8480000000000001,5,0.4634612999998353,0.6134349999992992,0,0.7647534999996424,0.9148717999996734,7,0.4508763000003455,0.6867165000003297,,,69.0,66.0,67891,60.0,
-77,77,45,10,2,162,6,,,,,,,,,,,session,2135.9951036999996,144.0,2.0,72.0,0.8480000000000001,2,0.3143483000003471,0.4981166999996276,1,0.4103566999992836,0.6726058999993256,7,0.31890500000008615,0.6188442000002397,,,69.0,72.0,67891,60.0,
77,77,-45,10,3,163,0,,,,,,,,,,,session,2143.9888134,162.0,2.0,72.0,0.8480000000000001,5,0.35359729999981937,0.5035366000001886,7,1.0611382000006415,1.2468437000006816,7,0.550690900000518,1.0343426999997973,,,54.0,57.0,67891,60.0,
77,-77,45,10,4,164,10,,,,,,,,,,,session,2152.771923,174.0,2.0,72.0,0.8480000000000001,4,0.5840719000007084,0.8191858000000138,1,0.4612809999998717,0.8260129999998753,1,0.01213389999975334,0.701037599999836,,,72.0,69.0,67891,60.0,
77,77,90,10,5,165,3,,,,,,,,,,,session,2161.8132619000003,126.0,2.0,72.0,0.8480000000000001,5,0.4593190000005052,0.6088081000007151,6,0.4431941000002553,0.609903800000211,6,0.4831568999998126,0.6659170000002632,,,66.0,69.0,67891,60.0,
77,-77,-45,10,6,166,8,,,,,,,,,,,session,2170.1892323999996,132.0,2.0,72.0,0.8480000000000001,4,0.4090101000001596,0.6260173999999097,7,0.30980880000061006,0.5934115999998539,7,0.1669394000000466,0.4187995000002047,,,66.0,63.0,67891,60.0,
-77,77,0,10,7,167,5,,,,,,,,,,,session,2177.6252081,150.0,2.0,72.0,0.8480000000000001,2,0.14816740000060236,0.43163650000042253,0,0.5461933999995381,0.7296655000000101,7,0.566197999999531,0.6777662999993481,,,57.0,57.0,67891,60.0,
77,77,45,10,8,168,2,,,,,,,,,,,session,2185.3012175,168.0,2.0,72.0,0.8480000000000001,5,0.3255849000006492,0.5104871000003186,1,0.4048628999998982,0.9371368000001894,7,0.27223099999991973,0.4055238000000827,,,57.0,66.0,67891,60.0,
-77,77,-45,10,9,169,4,,,,,,,,,,,session,2193.8208062999997,144.0,2.0,72.0,0.8480000000000001,2,0.9158588000000236,1.0814215000000331,7,0.36628789999940636,0.8182388999994146,7,0.41761550000046554,0.6502054000002317,,,48.0,72.0,67891,60.0,
-77,-77,0,10,10,170,13,,,,,,,,,,,session,2202.2074085,126.0,2.0,72.0,0.8480000000000001,3,0.34743470000012167,0.4999502999999095,0,0.5787926999992123,0.7671365999995032,7,0.6963821000008465,0.8496752000000924,,,72.0,69.0,67891,60.0,
77,-77,0,10,11,171,9,,,,,,,,,,,session,2210.2407645,138.0,2.0,72.0,0.8480000000000001,4,0.12082319999990432,0.4228428000005806,0,0.3142098000007536,0.5645374000005177,7,0.3547993000001952,0.5537061000004542,,,54.0,54.0,67891,60.0,
77,-77,90,10,12,172,11,,,,,,,,,,,session,2217.3385504000003,126.0,2.0,72.0,0.8480000000000001,4,0.2979880000002595,0.4295713000001342,6,0.4656572000003507,0.6137961000003997,7,0.7168363000000681,0.932148199999574,,,60.0,51.0,67891,60.0,
-77,-77,45,10,13,173,14,,,,,,,,,,,session,2224.7113506,126.0,2.0,72.0,0.8480000000000001,3,0.2547658000003139,0.5151496999997107,1,0.4426565000003393,0.6585484000006545,7,0.2706310999992638,0.5170160999996369,,,66.0,69.0,67891,60.0,
-77,-77,90,10,14,174,15,,,,,,,,,,,session,2232.2032206,180.0,2.0,72.0,0.8480000000000001,3,0.2967539000001125,0.4324182000000292,6,0.3966013000008388,0.5286893000002237,7,0.13796499999989464,0.33771249999972497,,,72.0,66.0,67891,60.0,
-77,77,90,10,15,175,7,,,,,,,,,,,session,2240.2561519999995,144.0,2.0,72.0,0.8480000000000001,2,0.28208319999976084,0.4322100999997929,6,0.32958330000019487,0.4797158000001218,7,0.156028299999889,0.38926660000015545,,,66.0,72.0,67891,60.0,
77,-77,90,11,0,176,11,,,,,,,,,,,session,2247.6936762,156.0,2.0,72.0,0.8480000000000001,4,0.3706411000002845,0.5917388999996547,6,0.4115246000001207,0.6116179000000557,6,0.01132699999925535,0.013241199999356468,,,54.0,72.0,67891,60.0,
77,77,-45,11,1,177,0,,,,,,,,,,,session,2255.4473249,174.0,2.0,72.0,0.8480000000000001,5,0.32502649999969435,0.5083060999995723,7,0.2342129999997269,0.4481628000003184,6,0.011685799999213486,0.2394773999994868,,,51.0,66.0,67891,60.0,
-77,77,45,11,2,178,6,,,,,,,,,,,session,2262.9402923000002,126.0,2.0,72.0,0.8480000000000001,2,0.41566659999989497,0.567719899999247,1,0.6901826999992409,0.9561494999998104,7,0.30469690000063565,0.5708427999998094,,,63.0,54.0,67891,60.0,
-77,77,-45,11,3,179,4,,,,,,,,,,,session,2270.5125265,132.0,2.0,72.0,0.8480000000000001,2,0.35953169999993406,0.5315115000003061,7,0.3417661000003136,0.6600788000005195,7,0.011254699999881268,0.23652929999934713,,,63.0,54.0,67891,60.0,
-77,77,-45,11,3,179,4,,,materials/instructions\12_break.png,2277.973001,2280.8707600000002,0,2.6447322000003624,2.8951394000005166,0.016111800000544463,2.901369799999884,,,,,,,,,,,,,,,,,,,,67891,60.0,
77,-77,0,11,4,180,9,,,,,,,,,,,session,2280.8848083,150.0,2.0,72.0,0.8480000000000001,4,0.3316580000000613,0.6648821999997381,0,0.29930270000022574,0.5650201000007655,7,0.28432710000015504,0.5345863000002282,,,54.0,72.0,67891,60.0,
77,77,0,11,5,181,1,,,,,,,,,,,session,2288.6913788999996,180.0,2.0,72.0,0.8480000000000001,5,0.3015150999999605,0.46833169999990787,0,0.24772250000023632,0.5064094999997906,6,0.3326068000005762,0.710930900000676,,,54.0,48.0,67891,60.0,
-77,77,0,11,6,182,5,,,,,,,,,,,session,2296.5355133999997,168.0,2.0,72.0,0.8480000000000001,2,0.11160240000026533,0.3818829000001642,0,0.7134680999997727,0.9451207000001887,0,0.3698619000006147,0.5855518000007578,,,54.0,48.0,67891,60.0,
-77,-77,90,11,7,183,15,,,,,,,,,,,session,2304.5721523999996,126.0,2.0,72.0,0.8480000000000001,3,0.12914880000062112,0.2792488000004596,6,0.8630761000003986,1.0461074000004373,6,0.6317297000005055,0.7818165000007866,,,57.0,72.0,67891,60.0,
77,77,45,11,8,184,2,,,,,,,,,,,session,2312.3768696,174.0,2.0,72.0,0.8480000000000001,5,0.6223859000001539,0.7495664000007309,1,0.47367040000062843,0.7569614000003639,7,0.4120738000001438,0.669155900000078,,,69.0,57.0,67891,60.0,
-77,-77,0,11,9,185,13,,,,,,,,,,,session,2321.0425378999994,132.0,2.0,72.0,0.8480000000000001,3,0.34123149999959423,0.5385747000000265,0,0.8754822000000786,1.0608186999997997,0,0.01130139999986568,0.01320789999954286,,,66.0,63.0,67891,60.0,
-77,-77,-45,11,10,186,12,,,,,,,,,,,session,2328.4653363,138.0,2.0,72.0,0.8480000000000001,3,0.04707620000044699,0.33218790000046283,7,0.27936570000019856,0.479556400000547,7,0.370933100000002,0.5878734000007171,,,57.0,69.0,67891,60.0,
77,77,90,11,11,187,3,,,,,,,,,,,session,2335.7122482,168.0,2.0,72.0,0.8480000000000001,5,0.011449600000560167,0.4470075999997789,6,0.3601520000001983,0.5610223000003316,7,0.6685201999998753,0.8334526999997252,,,66.0,54.0,67891,60.0,
77,-77,-45,11,12,188,8,,,,,,,,,,,session,2344.1389649999996,180.0,2.0,72.0,0.8480000000000001,4,0.9978768000000855,1.200445999999829,7,0.44594969999980094,0.6958613999995578,7,0.5707036000003427,0.8046554000002288,,,57.0,60.0,67891,60.0,
77,-77,45,11,13,189,10,,,,,,,,,,,session,2353.2425504,168.0,2.0,72.0,0.8480000000000001,4,0.7671906999994462,1.0162755999999717,1,0.9301267999999254,1.313770800000384,7,0.4440779999995357,0.7275951000001442,,,54.0,48.0,67891,60.0,
-77,-77,45,11,14,190,14,,,,,,,,,,,session,2362.2360212,126.0,2.0,72.0,0.8480000000000001,3,0.456615399999464,0.6566383999997925,1,0.412722400000348,0.9794154999999591,7,0.835200800000166,1.03540140000041,,,54.0,72.0,67891,60.0,
-77,77,90,11,15,191,7,,,,,,,,,,,session,2370.8711668,174.0,2.0,72.0,0.8480000000000001,2,0.4148609999992914,0.5819736999992529,6,0.3826901000002181,0.5497560000003432,7,0.30461170000035054,0.554496000000654,,,54.0,57.0,67891,60.0,
-77,-77,0,12,0,192,13,,,,,,,,,,,session,2378.7274413,144.0,2.0,72.0,0.8480000000000001,3,0.32730160000028263,0.5199282000003222,1,1.6772242000006372,1.7233303000002707,0,0.5530467000007775,0.7867255000001023,,,63.0,60.0,67891,60.0,
77,77,-45,12,1,193,0,,,,,,,,,,,session,2387.6874923,138.0,2.0,72.0,0.8480000000000001,5,3.1822709000007308,3.3337531000006493,7,0.9970062000002144,1.1971411000004082,7,0.2825745000000097,0.4660382000001846,,,69.0,54.0,67891,60.0,
-77,77,90,12,2,194,7,,,,,,,,,,,session,2398.4752280999996,168.0,2.0,72.0,0.8480000000000001,2,0.33206999999947584,0.4654267999994772,6,0.530012600000191,0.6967805000003864,7,0.29225419999966107,0.6478332999995473,,,51.0,48.0,67891,60.0,
-77,77,-45,12,3,195,4,,,,,,,,,,,session,2406.1952127,126.0,2.0,72.0,0.8480000000000001,2,0.5376427999999578,0.6745713000000251,7,0.5845083000003797,1.0542961000001014,7,0.3848371000003681,0.6675396000000546,,,57.0,51.0,67891,60.0,
-77,77,45,12,4,196,6,,,,,,,,,,,session,2414.322992,156.0,2.0,72.0,0.8480000000000001,2,0.3615055999998731,0.5283221999998204,1,0.5162626999999702,0.7155233000003136,7,0.3279338000002099,0.49386760000015784,,,57.0,48.0,67891,60.0,
77,-77,45,12,5,197,10,,,,,,,,,,,session,2421.8442717000003,150.0,2.0,72.0,0.8480000000000001,4,0.5659539999996923,0.7986300000002302,1,0.34566759999961505,0.7388023000003159,7,0.29302800000004936,0.49737890000051266,,,69.0,63.0,67891,60.0,
-77,77,0,12,6,198,5,,,,,,,,,,,session,2430.0413771999997,162.0,2.0,72.0,0.8480000000000001,2,0.39132749999953376,0.5914564999993672,0,0.58065280000028,1.1302740000000995,7,0.3662898000002315,0.5841024000001198,,,57.0,57.0,67891,60.0,
-77,-77,45,12,7,199,14,,,,,,,,,,,session,2438.4249466999995,156.0,2.0,72.0,0.8480000000000001,3,0.31288519999998243,0.48269359999994776,1,0.812994200000503,0.9610445999996955,7,0.346528699999908,0.8820810000006531,,,66.0,63.0,67891,60.0,
-77,-77,45,12,7,199,14,,,materials/instructions\12_break.png,2446.9568919999997,2495.4700609999995,0,48.37796270000035,48.511361200000465,0.023637199999939185,48.518712299999606,,,,,,,,,,,,,,,,,,,,67891,60.0,
77,77,0,12,8,200,1,,,,,,,,,,,session,2495.4864811,168.0,2.0,72.0,0.8480000000000001,5,0.44083560000035504,0.6106815000002825,0,0.011351799999829382,0.013400799999544688,6,0.9177340999995067,1.1158015999999407,,,66.0,57.0,67891,60.0,
77,-77,0,12,9,201,9,,,,,,,,,,,session,2503.7049018000002,138.0,2.0,72.0,0.8480000000000001,4,0.36888679999992746,0.5022018999998181,0,0.34631739999986166,0.5631665999999313,6,0.5399825000004057,0.8075972000006004,,,54.0,69.0,67891,60.0,
-77,-77,90,12,10,202,15,,,,,,,,,,,session,2511.3635118999996,168.0,2.0,72.0,0.8480000000000001,3,0.30623150000064925,0.4730435999999827,6,0.9913300999996864,1.2541337000002386,6,0.6677661000003354,0.8512284999997064,,,63.0,51.0,67891,60.0,
77,-77,-45,12,11,203,8,,,,,,,,,,,session,2520.089595,174.0,2.0,72.0,0.8480000000000001,4,0.5122886999997718,0.6628314999998111,7,0.6610443999998097,1.128135499999189,7,0.46978260000014416,0.969952800000101,,,54.0,54.0,67891,60.0,
77,77,45,12,12,204,2,,,,,,,,,,,session,2529.0094557999996,126.0,2.0,72.0,0.8480000000000001,5,1.6662719000005382,1.8674575000004552,1,0.4507774999992762,0.7523327999997491,7,0.27127910000035627,0.8655407000005653,,,57.0,63.0,67891,60.0,
77,-77,90,12,13,205,11,,,,,,,,,,,session,2538.0281376,162.0,2.0,72.0,0.8480000000000001,4,1.4492698000003656,1.6826712000001862,6,0.4486323999999513,0.7161337999996249,7,1.0543533000000025,1.2373308000005636,,,48.0,66.0,67891,60.0,
-77,-77,-45,12,14,206,12,,,,,,,,,,,session,2548.2573753,144.0,2.0,72.0,0.8480000000000001,3,0.8978640999994241,1.214724199999182,7,0.4820583999999144,0.7990662000001976,7,0.45148190000054456,1.0508816999999908,,,69.0,69.0,67891,60.0,
77,77,90,12,15,207,3,,,,,,,,,,,session,2557.4642882000003,162.0,2.0,72.0,0.8480000000000001,5,0.011544200000571436,0.6216712000004918,6,0.39278920000015205,0.7604911999997057,6,0.8684597000001304,1.051669899999979,,,54.0,60.0,67891,60.0,
-77,77,0,13,0,208,5,,,,,,,,,,,session,2566.4062010000002,144.0,2.0,72.0,0.8480000000000001,2,0.583274500000698,0.8519927000006646,0,0.44795930000054796,0.6828823000005286,7,0.8215934999998353,1.071777099999963,,,48.0,51.0,67891,60.0,
-77,-77,-45,13,1,209,12,,,,,,,,,,,session,2574.493298,168.0,2.0,72.0,0.8480000000000001,3,0.6165100000007442,0.8342834000004586,7,0.38134569999965606,0.9157646000003297,7,1.080164799999693,1.2994753000002675,,,54.0,63.0,67891,60.0,
77,-77,-45,13,2,210,8,,,,,,,,,,,session,2583.7424839,180.0,2.0,72.0,0.8480000000000001,4,0.4813739000001078,0.597424200000205,7,0.49546139999984007,0.8454088999997111,7,0.6076819999998406,0.9914939999998751,,,60.0,48.0,67891,60.0,
77,77,45,13,3,211,2,,,,,,,,,,,session,2592.6438838999998,162.0,2.0,72.0,0.8480000000000001,5,0.5507389000003968,0.7153801000004023,1,0.4458801000000676,0.6127047999998467,7,1.0843487000001915,1.4014477000000625,,,66.0,57.0,67891,60.0,
-77,-77,45,13,4,212,14,,,,,,,,,,,session,2601.5650345,126.0,2.0,72.0,0.8480000000000001,3,0.476147200000014,0.9582426999995732,1,0.7475765000008323,0.9946869000004881,6,0.22175530000004073,0.520332099999905,,,57.0,69.0,67891,60.0,
-77,77,-45,13,5,213,4,,,,,,,,,,,session,2609.9901127,126.0,2.0,72.0,0.8480000000000001,2,0.34976319999987027,0.5321010999996361,7,0.3251541999998153,0.6253723999998329,7,0.653778500000044,0.871664199999941,,,69.0,63.0,67891,60.0,
77,-77,45,13,6,214,10,,,,,,,,,,,session,2617.7443026999995,144.0,2.0,72.0,0.8480000000000001,4,0.31371709999984887,0.497102399999676,1,0.362189400000716,0.5288690000006682,7,0.2845908999997846,0.5340060999997149,,,69.0,63.0,67891,60.0,
77,-77,0,13,7,215,9,,,,,,,,,,,session,2625.3488252,144.0,2.0,72.0,0.8480000000000001,4,0.9583899999997811,1.6080365999996502,0,0.383643199999824,0.6164760000001479,7,0.9957584000003408,1.1799315999996907,,,60.0,66.0,67891,60.0,
77,77,-45,13,8,216,0,,,,,,,,,,,session,2635.4070443999994,168.0,2.0,72.0,0.8480000000000001,5,0.3809912999995504,0.5811537999998109,7,0.3976345000000947,0.7311344999998255,7,0.9017366000007314,1.0684909000001426,,,63.0,69.0,67891,60.0,
-77,77,45,13,9,217,6,,,,,,,,,,,session,2644.229465,138.0,2.0,72.0,0.8480000000000001,2,0.6065631999999823,0.8173496999997951,1,0.5279135000000679,0.7445274000001518,7,1.1309432999996716,1.2643615999995745,,,57.0,51.0,67891,60.0,
-77,77,90,13,10,218,7,,,,,,,,,,,session,2652.6072025999997,168.0,2.0,72.0,0.8480000000000001,2,0.411148599999251,0.5926297999994858,6,0.748603600000024,0.9157761999995273,7,1.009851499999968,1.1941499000004114,,,63.0,66.0,67891,60.0,
77,77,90,13,11,219,3,,,,,,,,,,,session,2661.7104649999997,126.0,2.0,72.0,0.8480000000000001,5,0.23070980000011332,0.464128200000232,6,1.5816254000001209,1.799684000000525,7,1.153036699999575,1.3894345999997313,,,60.0,66.0,67891,60.0,
77,77,90,13,11,219,3,,,materials/instructions\12_break.png,2671.0546101999994,2672.8340523,0,1.59831209999993,1.7774261000004117,0.013399899999967602,1.7891161999996257,,,,,,,,,,,,,,,,,,,,67891,60.0,
-77,-77,0,13,12,220,13,,,,,,,,,,,session,2672.8543895,168.0,2.0,72.0,0.8480000000000001,3,0.011142399999698682,0.3754241999995429,0,0.4277498999999807,0.6445992000008118,7,0.3008780999998635,0.6500648999999612,,,51.0,57.0,67891,60.0,
77,77,0,13,13,221,1,,,,,,,,,,,session,2680.6238179999996,138.0,2.0,72.0,0.8480000000000001,5,0.3800684000007095,0.5449961000003896,0,0.011294699999780278,0.0131413999997676,7,0.36744110000017827,0.48619289999987814,,,54.0,54.0,67891,60.0,
-77,-77,90,13,14,222,15,,,,,,,,,,,session,2687.214818,174.0,2.0,72.0,0.8480000000000001,3,0.8667579000002661,1.0720838999995976,6,0.1899383999998463,0.42827679999936663,7,0.011270900000454276,0.013236800000413496,,,60.0,60.0,67891,60.0,
77,-77,90,13,15,223,11,,,,,,,,,,,session,2695.0707089,144.0,2.0,72.0,0.8480000000000001,4,0.4920577000002595,0.9938934000001609,6,0.011273299999629671,0.013142800000423449,6,0.011567900000045483,0.013422700000774057,,,60.0,72.0,67891,60.0,
-77,77,45,14,0,224,6,,,,,,,,,,,session,2702.1372188,132.0,2.0,72.0,0.8480000000000001,2,0.8627260000002934,1.3153720000000249,1,0.9437491000007867,1.1940029000006689,7,0.011265500000263273,0.013075700000626966,,,57.0,51.0,67891,60.0,
77,77,0,14,1,225,1,,,,,,,,,,,session,2710.1068767,132.0,2.0,72.0,0.8480000000000001,5,0.09750369999983377,0.24899679999998625,0,0.011414799999329261,0.013333099999726983,6,0.011556099999324942,0.013478500000019267,,,51.0,63.0,67891,60.0,
-77,77,-45,14,2,226,4,,,,,,,,,,,session,2715.9546567,150.0,2.0,72.0,0.8480000000000001,2,0.011203799999748298,0.013062099999842758,7,0.011131400000522262,0.013019600000006903,7,0.01129679999939981,0.013231299999461044,,,69.0,54.0,67891,60.0,
77,-77,0,14,3,227,9,,,,,,,,,,,session,2722.2534147,180.0,2.0,72.0,0.8480000000000001,4,0.011585700000068755,0.16337040000053094,0,0.011183199999322824,0.013028399999711837,6,2.1033010999999533,2.2866205000000264,,,72.0,72.0,67891,60.0,
77,77,90,14,4,228,3,,,,,,,,,,,session,2731.5626523999995,180.0,2.0,72.0,0.8480000000000001,5,0.3810046999997212,0.6549620000005234,6,0.011368400000719703,0.013261099999908765,6,0.011372999999366584,0.013270299999931012,,,63.0,63.0,67891,60.0,
-77,-77,45,14,5,229,14,,,,,,,,,,,session,2738.8018785,150.0,2.0,72.0,0.8480000000000001,3,0.5328594999991765,0.7176981999991767,1,0.011380900000403926,0.013292900000124064,6,0.011539000000084343,0.013490400000591762,,,63.0,57.0,67891,60.0,
-77,77,90,14,6,230,7,,,,,,,,,,,session,2745.5584433,174.0,2.0,72.0,0.8480000000000001,2,0.4645066000002771,0.6316178000006403,6,0.011145700000270153,0.013072000000647677,6,0.011208500000066124,0.01310639999974228,,,48.0,66.0,67891,60.0,
77,77,45,14,7,231,2,,,,,,,,,,,session,2752.4585952,156.0,2.0,72.0,0.8480000000000001,5,0.14604770000005374,0.34604589999980817,1,0.01121419999981299,0.013097500000185391,7,0.4235859000000346,0.647371000000021,,,60.0,63.0,67891,60.0,
77,-77,-45,14,8,232,8,,,,,,,,,,,session,2759.6449771000002,126.0,2.0,72.0,0.8480000000000001,4,0.057311200000185636,0.290665500000614,7,0.011163099999976112,0.013011600000027101,7,0.011240900000302645,0.013097600000037346,,,66.0,51.0,67891,60.0,
77,-77,90,14,9,233,11,,,,,,,,,,,session,2765.9372663,126.0,2.0,72.0,0.8480000000000001,4,0.24511290000009467,0.4452181999995446,6,0.2986903999999413,0.45073989999946207,7,0.011409499999899708,0.06533330000002024,,,48.0,63.0,67891,60.0,
77,77,-45,14,10,234,0,,,,,,,,,,,session,2772.2919596999996,138.0,2.0,72.0,0.8480000000000001,5,0.07883019999917451,0.2300435999995898,7,0.010928000000603788,0.012797000000318803,7,1.152291299999888,0.011163099999976112,,,60.0,51.0,67891,60.0,
-77,-77,90,14,11,235,15,,,,,,,,,,,session,2779.3013789,126.0,2.0,72.0,0.8480000000000001,3,0.11014679999971122,0.37300669999967795,6,0.011218399999961548,0.07526940000025206,6,0.011156800000208023,0.013036700000156998,,,48.0,60.0,67891,60.0,
77,-77,45,14,12,236,10,,,,,,,,,,,session,2785.8603888000002,162.0,2.0,72.0,0.8480000000000001,4,0.5268237000000227,0.7607070999993084,1,0.01113439999971888,0.013060399999631045,7,0.011222300000554242,0.1490458000007493,,,66.0,60.0,67891,60.0,
-77,-77,-45,14,13,237,12,,,,,,,,,,,session,2793.0596703999995,162.0,2.0,72.0,0.8480000000000001,3,0.31264740000005986,0.47894840000026306,7,0.011056299999836483,0.013008099999751721,7,0.011366300000190677,0.013193099999625701,,,63.0,57.0,67891,60.0,
-77,77,0,14,14,238,5,,,,,,,,,,,session,2799.7245949000003,162.0,2.0,72.0,0.8480000000000001,2,0.011083999999755179,0.013050300000031712,0,0.011070599999584374,0.012928999999530788,6,0.7045164000001023,0.8517665999997917,,,63.0,48.0,67891,60.0,
-77,-77,0,14,15,239,13,,,,,,,,,,,session,2806.9286427,180.0,2.0,72.0,0.8480000000000001,3,0.011090599999988626,0.013028300000769377,0,0.6680826000001616,0.8319494999996095,7,0.011367799999788986,0.15201919999981328,,,51.0,51.0,67891,60.0,
-77,-77,0,14,15,239,13,,,materials/instructions\12_break.png,2814.131922,2815.9909083,0,1.623418799999854,1.856972599999608,0.011516100000335427,1.8646512000004805,,,,,,,,,,,,,,,,,,,,67891,60.0,
77,-77,45,15,0,240,10,,,,,,,,,,,session,2816.0063092999994,126.0,2.0,72.0,0.8480000000000001,4,0.40079250000053435,0.5509837999998126,1,1.0314842999996472,1.2318083000000115,7,0.505139799999597,0.738822500000424,,,72.0,72.0,67891,60.0,
-77,77,-45,15,1,241,4,,,,,,,,,,,session,2824.4670641,180.0,2.0,72.0,0.8480000000000001,2,0.25747210000008636,0.40697330000057264,7,0.2961466999995537,0.49625969999942754,7,0.9265781000003699,1.1107234000000972,,,51.0,69.0,67891,60.0,
77,-77,90,15,2,242,11,,,,,,,,,,,session,2833.5951773,162.0,2.0,72.0,0.8480000000000001,4,0.6158638000006249,0.7169794999999795,6,0.39819840000018303,0.5482344000001831,7,0.20405010000013135,0.370861700000205,,,51.0,63.0,67891,60.0,
77,-77,-45,15,3,243,8,,,,,,,,,,,session,2841.2635156,174.0,2.0,72.0,0.8480000000000001,4,0.011306100000183505,0.11353140000028361,7,0.26579380000021047,0.48262070000055246,7,0.2685447000003478,0.7018286000002263,,,51.0,72.0,67891,60.0,
-77,-77,90,15,4,244,15,,,,,,,,,,,session,2848.9777180999995,144.0,2.0,72.0,0.8480000000000001,3,0.45755630000076053,0.7574543000000631,6,0.5423912999995082,0.7764141999996355,7,0.4811100999995688,0.8831247999996776,,,54.0,60.0,67891,60.0,
-77,77,0,15,5,245,5,,,,,,,,,,,session,2857.3443481,180.0,2.0,72.0,0.8480000000000001,2,0.23772680000001856,0.4207870999998704,0,0.5998595000000932,0.7497316999997565,7,0.8479904000005263,1.0479425000003175,,,51.0,51.0,67891,60.0,
77,77,90,15,6,246,3,,,,,,,,,,,session,2865.6980401999995,150.0,2.0,72.0,0.8480000000000001,5,0.01114910000069358,0.07868580000013026,6,0.4149651999996422,0.723266799999692,7,0.4542611000006218,0.685407099999793,,,66.0,48.0,67891,60.0,
-77,-77,-45,15,7,247,12,,,,,,,,,,,session,2873.1786679,144.0,2.0,72.0,0.8480000000000001,3,0.30970799999977316,0.47566850000021077,7,0.28069440000035684,0.7819614999998521,7,0.3220258000001195,0.7059287000001859,,,66.0,48.0,67891,60.0,
77,77,45,15,8,248,2,,,,,,,,,,,session,2880.8946094,144.0,2.0,72.0,0.8480000000000001,5,0.6171532999996998,0.79988719999983,1,0.6166795999997703,0.8491819999999279,7,0.10413840000001073,0.43693070000063017,,,51.0,48.0,67891,60.0,
-77,-77,45,15,9,249,14,,,,,,,,,,,session,2888.4487964999994,174.0,2.0,72.0,0.8480000000000001,3,0.011191099999450671,0.013131699999576085,1,1.8794990000005782,2.0993899000004603,7,1.1735220999999,1.3735545999998067,,,51.0,72.0,67891,60.0,
-77,77,45,15,10,250,6,,,,,,,,,,,session,2898.7925239,174.0,2.0,72.0,0.8480000000000001,2,1.8952936000005138,2.1800100000000384,1,0.9805150000001959,1.1316440000000512,7,0.3699477999998635,0.587348999999449,,,63.0,60.0,67891,60.0,
77,77,0,15,11,251,1,,,,,,,,,,,session,2909.0813691,138.0,2.0,72.0,0.8480000000000001,5,0.8815586999999141,1.0226133999995,0,0.4422881000000416,0.7275034999993295,7,0.40506249999998545,0.6365195999997013,,,48.0,57.0,67891,60.0,
77,-77,0,15,12,252,9,,,,,,,,,,,session,2916.9594814999996,174.0,2.0,72.0,0.8480000000000001,4,0.24357599999984814,0.761529899999914,0,0.2940232000000833,0.6619903999999224,7,0.33528560000013385,0.5015866000003371,,,72.0,48.0,67891,60.0,
77,77,-45,15,13,253,0,,,,,,,,,,,session,2925.2595636,168.0,2.0,72.0,0.8480000000000001,5,0.3017104999998992,0.47170879999976023,7,0.011400999999750638,0.013337399999727495,7,0.011398999999983062,0.06868329999997513,,,66.0,57.0,67891,60.0,
-77,-77,0,15,14,254,13,,,,,,,,,,,session,2932.1139202,126.0,2.0,72.0,0.8480000000000001,3,0.011285900000075344,0.29022919999988517,0,0.011105399999905785,0.14181149999967602,7,0.01119490000019141,0.013108099999953993,,,48.0,69.0,67891,60.0,
-77,77,90,15,15,255,7,,,,,,,,,,,session,2938.0549577999996,162.0,2.0,72.0,0.8480000000000001,2,0.011072500000409491,0.2579211000002033,6,0.011134000000311062,0.013176100000237057,6,0.7750867000004291,0.011042799999813724,,,48.0,60.0,67891,60.0,
77,77,0,16,0,256,1,,,,,,,,,,,session,2945.0781924999997,174.0,2.0,72.0,0.8480000000000001,5,0.39762470000005123,0.6812380000001212,0,0.011229799999455281,0.01310879999982717,6,0.41845999999986816,0.6870579999995243,,,69.0,72.0,67891,60.0,
77,77,-45,16,1,257,0,,,,,,,,,,,session,2953.1510771,138.0,2.0,72.0,0.8480000000000001,5,0.22993190000033792,0.4620985000001383,7,0.2381476999998995,0.4114761000000726,0,0.01118049999968207,0.16249260000040522,,,57.0,54.0,67891,60.0,
77,77,90,16,2,258,3,,,,,,,,,,,session,2959.7907536999996,144.0,2.0,72.0,0.8480000000000001,5,0.4068177999997715,0.5402532999996765,6,0.0742192999996405,0.2575922999994873,7,0.011239200000090932,0.013114999999743304,,,72.0,66.0,67891,60.0,
77,-77,90,16,3,259,11,,,,,,,,,,,session,2966.9039472,156.0,2.0,72.0,0.8480000000000001,4,0.7473257999999987,1.0315078000003268,6,0.46646679999957996,0.6665247000000818,7,0.20468419999997423,0.424673100000291,,,60.0,57.0,67891,60.0,
77,-77,90,16,3,259,11,,,materials/instructions\12_break.png,2975.05061,2978.6656188,0,3.4124524999997448,3.612901700000293,0.015673400000196125,3.6205565000000206,,,,,,,,,,,,,,,,,,,,67891,60.0,
-77,-77,90,16,4,260,15,,,,,,,,,,,session,2978.6811961999997,180.0,2.0,72.0,0.8480000000000001,3,0.4227768000000651,0.7726886999998896,6,0.8134369999997944,1.0134386999998242,7,0.6436594999995577,0.8749619999998686,,,48.0,72.0,67891,60.0,
-77,-77,-45,16,5,261,12,,,,,,,,,,,session,2988.4933152,132.0,2.0,72.0,0.8480000000000001,3,0.23663510000005772,0.5528345000002446,7,0.49857670000073995,0.698594000000412,7,0.4359178000004249,0.6194605999999112,,,51.0,66.0,67891,60.0,
77,-77,0,16,6,262,9,,,,,,,,,,,session,2995.9475841,168.0,2.0,72.0,0.8480000000000001,4,0.30062590000034106,0.5673181000001932,0,0.3206115000002683,0.5930813000004491,7,0.3104278999999224,0.5803388999993331,,,66.0,57.0,67891,60.0,
77,-77,-45,16,7,263,8,,,,,,,,,,,session,3003.9957405,180.0,2.0,72.0,0.8480000000000001,4,0.345788900000116,0.5634325000000899,7,0.292984400000023,0.45883520000006683,7,0.2835361000006742,0.40181639999991603,,,63.0,51.0,67891,60.0,
-77,-77,0,16,8,264,13,,,,,,,,,,,session,3011.8438745999997,174.0,2.0,72.0,0.8480000000000001,3,0.01255089999995107,0.4238138999999137,0,0.7295272000001205,0.8795821999992768,7,0.0111295999995491,0.013082599999506783,,,54.0,69.0,67891,60.0,
-77,77,0,16,9,265,5,,,,,,,,,,,session,3019.5619622,132.0,2.0,72.0,0.8480000000000001,2,0.35610540000016044,0.4799683000001096,0,2.106622999999672,2.3214366000001974,7,0.9010418000007121,1.1348038000005545,,,66.0,72.0,67891,60.0,
-77,-77,45,16,10,266,14,,,,,,,,,,,session,3029.4459795,150.0,2.0,72.0,0.8480000000000001,3,0.07491970000046422,0.341335799999797,1,0.725644299999658,0.9257953999995152,7,0.03475640000033309,0.25340180000057444,,,51.0,69.0,67891,60.0,
77,77,45,16,11,267,2,,,,,,,,,,,session,3036.9128287,180.0,2.0,72.0,0.8480000000000001,5,0.15790190000006987,0.29123929999968823,1,0.3794430000007196,0.6462715000006938,7,0.13808049999988725,0.3376709000003757,,,63.0,57.0,67891,60.0,
-77,77,45,16,12,268,6,,,,,,,,,,,session,3044.6179895,126.0,2.0,72.0,0.8480000000000001,2,0.011295199999949546,0.01321159999952215,1,0.6999962999998388,0.9780688000000737,7,0.5001440999994884,0.6503593999996156,,,60.0,66.0,67891,60.0,
77,-77,45,16,13,269,10,,,,,,,,,,,session,3052.6425359,162.0,2.0,72.0,0.8480000000000001,4,0.49123210000016115,0.6412971999998263,1,0.8163490000006277,1.0981411000002481,7,0.6697978000001967,0.8366665000003195,,,69.0,63.0,67891,60.0,
-77,77,90,16,14,270,7,,,,,,,,,,,session,3061.5652055999994,162.0,2.0,72.0,0.8480000000000001,2,0.27706969999962894,0.7265195999998468,6,0.5536025000001246,0.7437202999999499,7,0.561845500000345,0.7785697999997865,,,54.0,60.0,67891,60.0,
-77,77,-45,16,15,271,4,,,,,,,,,,,session,3069.8629127,132.0,2.0,72.0,0.8480000000000001,2,0.012201900000036403,0.17062999999961903,7,0.36696109999957116,0.5669686000001093,7,0.011282500000561413,0.09970430000066699,,,48.0,57.0,67891,60.0,
77,-77,90,17,0,272,11,,,,,,,,,,,session,3076.2927078999996,174.0,2.0,72.0,0.8480000000000001,4,0.011083599999437865,0.012978900000234717,6,0.5090728999994099,0.709012199999961,6,0.06982909999987896,0.2201905000001716,,,69.0,69.0,67891,60.0,
77,77,0,17,1,273,1,,,,,,,,,,,session,3083.9138689999995,168.0,2.0,72.0,0.8480000000000001,5,0.06300290000035602,0.26307439999982307,0,0.011497899999994843,0.030436400000326103,7,0.011358700000528188,0.17406800000026124,,,69.0,54.0,67891,60.0,
-77,-77,-45,17,2,274,12,,,,,,,,,,,session,3090.6732117999995,150.0,2.0,72.0,0.8480000000000001,3,0.011153499999636551,0.2589005999998335,7,0.36115780000000086,0.5806001000000833,6,0.05033910000020114,0.7196605999997701,,,69.0,72.0,67891,60.0,
77,-77,0,17,3,275,9,,,,,,,,,,,session,3099.0127935999994,156.0,2.0,72.0,0.8480000000000001,4,0.01125190000038856,0.013143199999831268,0,0.8489141000000018,1.082404000000679,7,0.40061640000021725,0.5343854000002466,,,51.0,72.0,67891,60.0,
-77,77,45,17,4,276,6,,,,,,,,,,,session,3106.7333994999995,144.0,2.0,72.0,0.8480000000000001,2,0.8083943999999974,0.9756861999994726,1,0.32203800000024785,0.5595118999999613,7,0.6154943000001367,0.8744899000002988,,,60.0,66.0,67891,60.0,
-77,-77,45,17,5,277,14,,,,,,,,,,,session,3115.0864955,144.0,2.0,72.0,0.8480000000000001,3,0.44475149999925634,0.6114610999993602,1,2.0218511000002763,2.372739299999921,7,0.06802599999991799,0.2869528999999602,,,48.0,66.0,67891,60.0,
77,77,90,17,6,278,3,,,,,,,,,,,session,3124.0963583999996,162.0,2.0,72.0,0.8480000000000001,5,0.8961914999999863,1.0631786000003558,6,0.5937213999995947,0.7433799999998882,7,0.2854674000000159,0.4850458000000799,,,72.0,72.0,67891,60.0,
77,77,-45,17,7,279,0,,,,,,,,,,,session,3132.9360589000003,132.0,2.0,72.0,0.8480000000000001,5,0.3896476999998413,0.5898696999993263,7,0.3763680000001841,0.5568035000005693,7,0.5043873000004169,0.7068544000003385,,,60.0,66.0,67891,60.0,
77,77,-45,17,7,279,0,,,materials/instructions\12_break.png,3141.2650633999997,3217.1971716000003,0,75.79659869999978,75.9302318,0.013694999999643187,75.93776950000029,,,,,,,,,,,,,,,,,,,,67891,60.0,
-77,77,0,17,8,280,5,,,,,,,,,,,session,3217.2129230999994,126.0,2.0,72.0,0.8480000000000001,2,0.02906669999993028,0.21355670000048121,0,0.7616811999996571,0.9140900000002148,7,0.2834655999995448,0.48363329999938287,,,69.0,63.0,67891,60.0,
-77,77,90,17,9,281,7,,,,,,,,,,,session,3224.5807005,144.0,2.0,72.0,0.8480000000000001,2,0.382309499999792,0.5507160999995904,6,0.5244641999997839,0.7579895999997461,7,0.4514763999995921,0.6352858999998716,,,66.0,48.0,67891,60.0,
-77,-77,90,17,10,282,15,,,,,,,,,,,session,3232.4124772,138.0,2.0,72.0,0.8480000000000001,3,0.2637275999995836,0.43050440000024537,6,0.07608720000007452,0.3461041999998997,6,0.011361800000486255,0.013285799999721348,,,63.0,48.0,67891,60.0,
-77,77,-45,17,11,283,4,,,,,,,,,,,session,3238.7945293,126.0,2.0,72.0,0.8480000000000001,2,1.6659112999996069,1.8010060999995403,7,0.2754941000002873,0.537097200000062,0,0.252073399999972,0.42913819999921543,,,57.0,63.0,67891,60.0,
77,77,45,17,12,284,2,,,,,,,,,,,session,3247.1266105,156.0,2.0,72.0,0.8480000000000001,5,0.32493389999945066,0.474850300000071,1,0.24300229999971634,0.4436538999998447,6,0.011109600000054343,0.14281579999988026,,,54.0,72.0,67891,60.0,
-77,-77,0,17,13,285,13,,,,,,,,,,,session,3254.4108790999994,126.0,2.0,72.0,0.8480000000000001,3,0.012157400000432972,0.15944870000021183,0,0.4301580000001195,0.6661114999997153,6,0.35138800000004267,0.6499239999993733,,,60.0,63.0,67891,60.0,
77,-77,-45,17,14,286,8,,,,,,,,,,,session,3261.4822957,174.0,2.0,72.0,0.8480000000000001,4,0.1811284000004889,0.5310601000001043,7,0.3019734999998036,0.443350399999872,7,0.33284350000030827,0.5330297999998947,,,48.0,51.0,67891,60.0,
77,-77,45,17,15,287,10,,,,,,,,,,,session,3268.9810789999997,132.0,2.0,72.0,0.8480000000000001,4,0.3558160000002317,0.6725664000005054,1,1.4667941999996401,1.6176697000000786,7,0.33523559999957797,0.5705567999993946,,,57.0,63.0,67891,60.0,
77,77,-45,18,0,288,0,,,,,,,,,,,session,3277.6475434,132.0,2.0,72.0,0.8480000000000001,5,0.4120339999999487,0.5442208999993454,7,0.4469334000004892,0.6638600000005681,7,0.6701837999999043,0.8704049000007217,,,54.0,51.0,67891,60.0,
77,-77,45,18,1,289,10,,,,,,,,,,,session,3285.1204455,126.0,2.0,72.0,0.8480000000000001,4,0.29707820000021457,0.5972645000001648,1,0.4284796000001734,0.6441711999996187,7,0.30187649999970745,0.5849877000000561,,,66.0,51.0,67891,60.0,
77,-77,90,18,2,290,11,,,,,,,,,,,session,3292.4488533,144.0,2.0,72.0,0.8480000000000001,4,1.0906236000000717,1.3549927000003663,6,0.5668139999997948,0.7669952999995076,7,0.8700963999999658,1.0869730999993408,,,60.0,72.0,67891,60.0,
77,77,45,18,3,291,2,,,,,,,,,,,session,3301.7138668000002,180.0,2.0,72.0,0.8480000000000001,5,0.37871520000044256,0.5310377000005246,1,0.7028690999995888,0.936266999999134,7,0.3184285999996064,0.6019245999996201,,,63.0,57.0,67891,60.0,
-77,-77,0,18,4,292,13,,,,,,,,,,,session,3310.2385485,168.0,2.0,72.0,0.8480000000000001,3,0.05317520000062359,0.25486799999998766,0,0.8799648000003799,1.0478522000003068,7,0.7368034999999509,0.9037759000002552,,,48.0,54.0,67891,60.0,
-77,-77,90,18,5,293,15,,,,,,,,,,,session,3319.1154825999997,126.0,2.0,72.0,0.8480000000000001,3,0.31341410000004544,0.43078590000004624,6,0.413938099999541,0.581618699999126,7,0.5859457000005932,0.7352194000004602,,,69.0,60.0,67891,60.0,
-77,-77,45,18,6,294,14,,,,,,,,,,,session,3326.5659402999995,180.0,2.0,72.0,0.8480000000000001,3,0.2612331999998787,0.47942870000042603,1,0.5970547999995688,0.7474240999999893,7,0.343695900000057,0.564896800000497,,,72.0,72.0,67891,60.0,
77,-77,-45,18,7,295,8,,,,,,,,,,,session,3335.2145755999995,174.0,2.0,72.0,0.8480000000000001,4,0.3270299999994677,0.5936552999992273,7,0.37502430000040476,0.8739722999998776,7,0.40449309999985417,0.6551764999994703,,,51.0,60.0,67891,60.0,
77,77,90,18,8,296,3,,,,,,,,,,,session,3343.7331813999995,138.0,2.0,72.0,0.8480000000000001,5,0.4802899999995134,0.6148119999998016,6,0.5614477999997689,0.7615780999994968,7,4.067848099999537,4.1852318000001105,,,57.0,60.0,67891,60.0,
-77,-77,-45,18,9,297,12,,,,,,,,,,,session,3354.9885105999997,144.0,2.0,72.0,0.8480000000000001,3,0.3900703999997859,0.7574506999999358,7,0.0971027999994476,0.43091499999991356,7,0.2533290000001216,0.45338559999981953,,,66.0,54.0,67891,60.0,
-77,77,90,18,10,298,7,,,,,,,,,,,session,3363.1998495000003,126.0,2.0,72.0,0.8480000000000001,2,0.13117759999931877,0.3147073999998611,6,0.2834971999991467,0.4672997999996369,7,0.01128690000041388,0.27256089999991673,,,66.0,72.0,67891,60.0,
77,77,0,18,11,299,1,,,,,,,,,,,session,3370.1023898,144.0,2.0,72.0,0.8480000000000001,5,0.011166600000251492,0.29675070000030246,0,0.2954565999998522,0.4625033000002077,7,0.3493125000004511,0.558552000000418,,,72.0,69.0,67891,60.0,
77,77,0,18,11,299,1,,,materials/instructions\12_break.png,3377.6467290999994,3379.0940711999997,0,1.2630940000008195,1.4448824000000968,0.016816100000141887,1.4519857000004777,,,,,,,,,,,,,,,,,,,,67891,60.0,
-77,77,-45,18,12,300,4,,,,,,,,,,,session,3379.1094786999997,138.0,2.0,72.0,0.8480000000000001,2,0.6454756000002817,0.8288486000001285,7,0.4295369000001301,0.7624512000002142,7,0.3512805999998818,0.583546099999694,,,69.0,51.0,67891,60.0,
77,-77,0,18,13,301,9,,,,,,,,,,,session,3387.2632141999998,168.0,2.0,72.0,0.8480000000000001,4,0.044445500000620086,0.3129495000002862,0,0.21364300000004732,0.4305865000005724,6,0.40611170000011043,0.5236002000001463,,,72.0,54.0,67891,60.0,
-77,77,45,18,14,302,6,,,,,,,,,,,session,3394.8689021999994,156.0,2.0,72.0,0.8480000000000001,2,0.41201320000072883,0.5451471000005768,1,0.3216430999991644,0.6045304999997825,7,0.2969844999997804,0.46476890000030835,,,72.0,63.0,67891,60.0,
-77,77,0,18,15,303,5,,,,,,,,,,,session,3402.7936401,150.0,2.0,72.0,0.8480000000000001,2,0.011121699999421253,0.34258739999950194,0,0.31174169999940204,0.7286275999995269,7,0.2666619999999966,0.517725600000631,,,72.0,48.0,67891,60.0,
-77,77,-45,19,0,304,4,,,,,,,,,,,session,3410.3472713999995,144.0,2.0,72.0,0.8480000000000001,2,0.46035029999984545,0.5771715000000768,7,0.4121291999999812,0.6458253999999215,7,0.3565593000002991,0.5745942000003197,,,60.0,66.0,67891,60.0,
-77,-77,0,19,1,305,13,,,,,,,,,,,session,3418.0889642999996,162.0,2.0,72.0,0.8480000000000001,3,0.011150700000143843,0.14147200000024895,0,0.7939333000003899,0.963479400000324,7,0.30181249999986903,0.5518781000000672,,,48.0,63.0,67891,60.0,
-77,77,90,19,2,306,7,,,,,,,,,,,session,3425.8987025,132.0,2.0,72.0,0.8480000000000001,2,0.10830400000031659,0.3583632999998372,6,1.1169769999996788,1.3336927999998807,7,0.30258729999968637,0.502170899999328,,,63.0,57.0,67891,60.0,
77,77,45,19,3,307,2,,,,,,,,,,,session,3433.7490957999994,156.0,2.0,72.0,0.8480000000000001,5,0.011284199999863631,0.24650039999960427,1,0.3694224999999278,0.6017898999998579,7,0.23463040000024193,0.48457370000051014,,,48.0,69.0,67891,60.0,
-77,77,0,19,4,308,5,,,,,,,,,,,session,3441.0697827999998,138.0,2.0,72.0,0.8480000000000001,2,0.28746790000059264,0.42092589999992924,0,0.28878400000030524,0.5047237999997378,7,0.2517814000002545,0.5197078000001056,,,57.0,66.0,67891,60.0,
-77,77,45,19,5,309,6,,,,,,,,,,,session,3448.5642169999996,174.0,2.0,72.0,0.8480000000000001,2,0.09327239999947778,0.4104516999996122,1,0.3937490999996953,0.6443822999999611,7,0.011291099999652943,0.2538279999998849,,,63.0,63.0,67891,60.0,
-77,-77,45,19,6,310,14,,,,,,,,,,,session,3456.3313949,156.0,2.0,72.0,0.8480000000000001,3,0.01113190000069153,0.24851770000077522,1,0.46921300000030897,0.7536359999994602,7,0.2865461999999752,0.5036037999998371,,,69.0,51.0,67891,60.0,
77,-77,0,19,7,311,9,,,,,,,,,,,session,3463.8707473,168.0,2.0,72.0,0.8480000000000001,4,0.22445429999970656,0.45754200000010314,0,0.5451415999996243,0.7648103999999876,7,0.319234100000358,0.43440499999996973,,,54.0,72.0,67891,60.0,
-77,-77,-45,19,8,312,12,,,,,,,,,,,session,3472.4298520999996,132.0,2.0,72.0,0.8480000000000001,3,0.12823260000004666,0.41202870000051917,7,0.3475242000004073,0.514336899999762,7,0.011244600000281935,0.07805199999984325,,,66.0,60.0,67891,60.0,
77,-77,90,19,9,313,11,,,,,,,,,,,session,3479.1804962,126.0,2.0,72.0,0.8480000000000001,4,0.1768472000003385,0.4605181000006269,6,0.3977936999999656,0.5641783999999461,7,0.4859833000000435,0.8697496000004321,,,69.0,48.0,67891,60.0,
77,77,-45,19,10,314,0,,,,,,,,,,,session,3486.571346,144.0,2.0,72.0,0.8480000000000001,5,0.011095500000010361,0.17063009999947099,7,0.25732630000038625,0.5227628000002369,7,0.2832165999998324,0.4997357000002012,,,54.0,66.0,67891,60.0,
77,-77,45,19,11,315,10,,,,,,,,,,,session,3494.2453368,138.0,2.0,72.0,0.8480000000000001,4,0.6440081999999165,0.860786399999597,1,0.39774409999972704,0.6979817000001276,7,0.3693005000004632,0.5528126000008342,,,48.0,63.0,67891,60.0,
-77,-77,90,19,12,316,15,,,,,,,,,,,session,3501.9670263000003,150.0,2.0,72.0,0.8480000000000001,3,0.2953796000001603,0.5788141000002724,6,0.6630444000002171,0.7969891000002463,6,0.5344211000001451,0.7335766000005606,,,60.0,60.0,67891,60.0,
77,77,0,19,13,317,1,,,,,,,,,,,session,3510.0226442,168.0,2.0,72.0,0.8480000000000001,5,0.2198190999997678,0.35706029999983,0,0.3152454000000944,0.4820435000001453,7,0.2339497000002666,0.4505949000003966,,,63.0,60.0,67891,60.0,
77,-77,-45,19,14,318,8,,,,,,,,,,,session,3518.1516448999996,180.0,2.0,72.0,0.8480000000000001,4,0.2800907000000734,0.5301539000001867,7,0.2779198999996879,0.5278981999999814,7,0.01215790000060224,0.014010300000336429,,,63.0,69.0,67891,60.0,
77,77,90,19,15,319,3,,,,,,,,,,,session,3525.8666527,180.0,2.0,72.0,0.8480000000000001,5,0.3803093999995326,0.5632374999995591,6,0.3163516000004165,0.5702757000008205,7,0.012347199999567238,0.20576170000003913,,,48.0,60.0,67891,60.0,
77,77,90,19,15,319,3,,,materials/instructions\12_break.png,3533.4606072,3535.5739883,0,1.9488165000002482,2.1118427000001248,0.020916200000101526,2.1228344000001016,,,,,,,,,,,,,,,,,,,,67891,60.0,
77,-77,90,20,0,320,11,,,,,,,,,,,session,3535.5942988,156.0,2.0,72.0,0.8480000000000001,4,0.3390799999997398,0.6412935999996989,6,1.0607805999998163,1.2778897999996843,7,0.06482499999947322,0.3160668999998961,,,63.0,57.0,67891,60.0,
77,-77,-45,20,1,321,8,,,,,,,,,,,session,3543.8982419999998,138.0,2.0,72.0,0.8480000000000001,4,0.011357700000189652,0.18353699999988748,7,0.3812640999994983,0.614719199999854,7,0.30437129999972967,0.41910250000000815,,,57.0,54.0,67891,60.0,
-77,77,45,20,2,322,6,,,,,,,,,,,session,3550.7221427,132.0,2.0,72.0,0.8480000000000001,2,0.2690901000005397,0.6904488999998648,1,0.23479500000030384,0.5225728000004892,7,0.011327000000164844,0.013217799999438284,,,54.0,69.0,67891,60.0,
77,-77,45,20,3,323,10,,,,,,,,,,,session,3557.693199,138.0,2.0,72.0,0.8480000000000001,4,0.01115010000012262,0.32454990000042017,1,0.011070399999880465,0.013113199999679637,7,0.13385350000044127,0.35071609999977227,,,66.0,57.0,67891,60.0,
-77,-77,90,20,4,324,15,,,,,,,,,,,session,3564.1812637,180.0,2.0,72.0,0.8480000000000001,3,0.011280400000032387,0.07740340000054857,6,0.3471338999997897,0.5639953999998397,7,0.26750129999982164,0.4187216999998782,,,48.0,48.0,67891,60.0,
-77,-77,0,20,5,325,13,,,,,,,,,,,session,3571.2866091,132.0,2.0,72.0,0.8480000000000001,3,0.01139469999998255,0.013312899999618821,0,0.3740442999996958,0.5408610000004046,6,0.412782999999763,0.6749988000001395,,,69.0,72.0,67891,60.0,
77,77,90,20,6,326,3,,,,,,,,,,,session,3578.5124009999995,144.0,2.0,72.0,0.8480000000000001,5,0.1791788999998971,0.3626072999995813,6,0.47931789999984176,0.6286500999995042,7,0.352299099999982,0.5505692000006093,,,54.0,48.0,67891,60.0,
77,77,0,20,7,327,1,,,,,,,,,,,session,3585.7301708,150.0,2.0,72.0,0.8480000000000001,5,0.011168999999426887,0.01306159999967349,0,0.3302598999998736,0.5282188999999562,7,0.3184209999999439,0.5186038000001645,,,54.0,63.0,67891,60.0,
-77,-77,-45,20,8,328,12,,,,,,,,,,,session,3592.7012830999997,138.0,2.0,72.0,0.8480000000000001,3,0.18693030000031285,0.554804399999739,7,0.3274743000001763,0.5610243999999511,7,0.21529460000056133,0.011231500000576489,,,51.0,51.0,67891,60.0,
-77,-77,45,20,9,329,14,,,,,,,,,,,session,3599.4868136,150.0,2.0,72.0,0.8480000000000001,3,0.4466421999995873,0.7640916000000288,1,0.5238296999996237,0.7393781000000672,7,0.31760730000041804,0.5343366000006426,,,57.0,51.0,67891,60.0,
77,77,-45,20,10,330,0,,,,,,,,,,,session,3607.6812472999995,150.0,2.0,72.0,0.8480000000000001,5,0.49672000000009575,0.7802496000003885,7,0.2944346999993286,0.44568840000010823,7,0.27637479999975767,0.47892249999949854,,,57.0,51.0,67891,60.0,
-77,77,0,20,11,331,5,,,,,,,,,,,session,3615.1225873999997,138.0,2.0,72.0,0.8480000000000001,2,0.3129295999997339,0.4451619000001301,0,0.011207700000340992,0.3503101999995124,7,0.3632730999997875,0.5630122000002302,,,69.0,66.0,67891,60.0,
-77,77,-45,20,12,332,4,,,,,,,,,,,session,3622.5001434,126.0,2.0,72.0,0.8480000000000001,2,0.32183770000028744,0.6716899000002741,7,0.056411600000501494,0.27816410000014,7,0.3648990000001504,0.5637717999998131,,,63.0,48.0,67891,60.0,
77,-77,0,20,13,333,9,,,,,,,,,,,session,3629.5790633,156.0,2.0,72.0,0.8480000000000001,4,0.3435945000001084,0.6438433000002988,0,0.345447000000604,0.5133262999997896,7,0.3679262999994535,0.551417699999547,,,72.0,51.0,67891,60.0,
77,77,45,20,14,334,2,,,,,,,,,,,session,3637.3872433,156.0,2.0,72.0,0.8480000000000001,5,0.23044620000018767,0.46405760000016016,1,0.2928799999999683,0.47131379999973433,7,0.3511668000001009,0.5303979999998774,,,72.0,63.0,67891,60.0,
-77,77,90,20,15,335,7,,,,,,,,,,,session,3645.1799982999996,126.0,2.0,72.0,0.8480000000000001,2,0.3434910999994827,0.6299855999995998,6,0.011112799999864365,0.11064239999996062,6,0.2953289999995832,0.47641979999934847,,,72.0,69.0,67891,60.0,
-77,-77,0,21,0,336,13,,,,,,,,,,,session,3652.3175509,144.0,2.0,72.0,0.8480000000000001,3,0.011289899999610498,0.04456369999934395,0,0.4576625999998214,0.6594756999993479,7,0.26697839999997086,0.43408029999955033,,,60.0,51.0,67891,60.0,
-77,77,45,21,1,337,6,,,,,,,,,,,session,3659.1541175999996,162.0,2.0,72.0,0.8480000000000001,2,0.04482030000053783,0.24722120000024006,1,0.012207099999614002,0.014083199999731733,7,0.011517399999320332,0.01337139999941428,,,69.0,60.0,67891,60.0,
77,-77,45,21,2,338,10,,,,,,,,,,,session,3665.748508,180.0,2.0,72.0,0.8480000000000001,4,0.32720399999925576,0.5772998999991614,1,0.01096990000041842,0.042201899999781745,7,0.18405149999944115,0.3506373000000167,,,60.0,54.0,67891,60.0,
77,77,90,21,3,339,3,,,,,,,,,,,session,3673.4303368999995,150.0,2.0,72.0,0.8480000000000001,5,0.2641334999998435,0.42967769999995653,6,0.011160500000187312,0.16452509999999165,6,0.7138402000000497,0.8807464999999866,,,72.0,54.0,67891,60.0,
77,77,90,21,3,339,3,,,materials/instructions\12_break.png,3680.9975308999997,3682.3858844,0,1.2177676999999676,1.3866360000001805,0.022729399999661837,1.3927505000001474,,,,,,,,,,,,,,,,,,,,67891,60.0,
-77,77,0,21,4,340,5,,,,,,,,,,,session,3682.4005443,162.0,2.0,72.0,0.8480000000000001,2,0.011233100000026752,0.013408800000433985,0,0.7887861999997767,1.0556839999999283,7,0.416595600000619,0.6368693000003987,,,48.0,54.0,67891,60.0,
77,-77,90,21,5,341,11,,,,,,,,,,,session,3689.9685170999996,126.0,2.0,72.0,0.8480000000000001,4,0.3968459999996412,0.5964137999999366,6,0.29549630000019533,0.49464369999986957,7,0.1850747999997111,0.4190898999995625,,,63.0,72.0,67891,60.0,
77,-77,-45,21,6,342,8,,,,,,,,,,,session,3697.2819458999998,132.0,2.0,72.0,0.8480000000000001,4,0.011196599999493628,0.013099399999191519,7,0.01203830000031303,0.12011580000034883,7,0.011580000000321888,0.013458999999784282,,,51.0,57.0,67891,60.0,
-77,77,-45,21,7,343,4,,,,,,,,,,,session,3702.8837751999995,138.0,2.0,72.0,0.8480000000000001,2,0.45526170000084676,0.6385073000001285,7,0.011140100000375242,0.2731229999999414,7,0.011539600000105565,0.013464900000144553,,,54.0,66.0,67891,60.0,
77,77,0,21,8,344,1,,,,,,,,,,,session,3709.580066,144.0,2.0,72.0,0.8480000000000001,5,0.011437600000135717,0.17812790000061796,0,0.4147497000003568,0.7147332000004099,7,0.2976718999998411,0.4475122999992891,,,60.0,60.0,67891,60.0,
-77,-77,-45,21,9,345,12,,,,,,,,,,,session,3717.2339085999997,168.0,2.0,72.0,0.8480000000000001,3,0.060077900000578666,0.2247285000003103,7,0.2817818999992596,0.4838165000001027,7,0.33489389999976993,0.5351172999999108,,,51.0,69.0,67891,60.0,
77,77,45,21,10,346,2,,,,,,,,,,,session,3724.7200415,144.0,2.0,72.0,0.8480000000000001,5,3.0334640999999465,3.1724598999999216,1,0.3591975999997885,0.5733959999997751,7,0.1644220000007408,0.41473320000022795,,,54.0,66.0,67891,60.0,
77,77,-45,21,11,347,0,,,,,,,,,,,session,3734.7315189999995,156.0,2.0,72.0,0.8480000000000001,5,0.3583950000002005,0.5251498999996329,7,0.3296447000002445,0.4963491000007707,7,0.2817960000002131,0.4308516999999483,,,63.0,69.0,67891,60.0,
-77,77,90,21,12,348,7,,,,,,,,,,,session,3742.4662384999997,174.0,2.0,72.0,0.8480000000000001,2,0.14699790000031498,0.6157051000000138,6,0.12776529999973718,0.3279925999995612,7,0.08417180000014923,0.28439220000018395,,,51.0,57.0,67891,60.0,
