x,y,orientation,.thisRepN,.thisTrialN,.thisN,.thisIndex,.stepSize,.intensity,image_name,global_start_time,global_end_time,pressKey,pressRT,releaseRT,image_started,image_ended,name,globalTime,fixation_dur,stimulation_dur,post_fixation,opacity,locationResponse_pressKey,locationResponse_pressRT,locationResponse_releaseRT,orientationResponse_pressKey,orientationResponse_pressRT,orientationResponse_releaseRT,pasResponse_pressKey,pasResponse_pressRT,pasResponse_releaseRT,.response,finalOpacity,postLoc,postOri,ID,frameRate,
,,,0,-1,-1,0,0.0969100130080564,None,materials/instructions\1_welcome.png,2.5890495000003284,55.33675690000018,0,52.645845899999586,52.74570440000025,0.07990249999966181,52.74586180000006,,,,,,,,,,,,,,,,,,,,72597,60.0,
,,,0,-1,-1,0,0.0969100130080564,None,materials/instructions\2_instruction.png,55.40518470000006,89.91133590000027,0,34.38724490000004,34.50410720000036,0.01768739999988611,34.511974299999565,,,,,,,,,,,,,,,,,,,,72597,60.0,
,,,0,-1,-1,0,0.0969100130080564,None,materials/instructions\3_location_demo.png,89.96378550000009,105.7065106,0,15.640652899999623,15.740697100000034,0.01695599999948172,15.748610099999496,,,,,,,,,,,,,,,,,,,,72597,60.0,
,,,0,-1,-1,0,0.0969100130080564,None,materials/instructions\4_orientation_demo.png,105.76235160000033,140.73403640000015,0,34.87257299999965,34.96968689999994,0.013623499999994237,34.979978700000174,,,,,,,,,,,,,,,,,,,,72597,60.0,
,,,0,-1,-1,0,0.0969100130080564,None,materials/instructions\5_pas_demo.png,140.79793309999968,161.83664899999985,0,20.886840899999697,21.036711100000502,0.021635399999468063,21.044566999999915,,,,,,,,,,,,,,,,,,,,72597,60.0,
152,152,-45,0,-1,-1,0,0.0969100130080564,None,,,,,,,,,session,161.85301590000017,144.0,2.0,72.0,1.0,5,2.7640052999995532,2.9310687999995935,1,2.3648056000001816,2.5312019000002692,6,4.997898300000088,5.131793300000027,,,,,72597,60.0,
152,152,45,0,-1,-1,0,0.0969100130080564,None,,,,,,,,,session,176.26209339999969,168.0,2.0,72.0,1.0,5,2.2400220999998055,2.418777500000033,7,4.1407310000004145,4.326215400000365,7,2.2505876999994143,2.4017094000000725,,,,,72597,60.0,
152,152,0,0,-1,-1,0,0.0969100130080564,None,,,,,,,,,session,189.69209460000002,138.0,2.0,72.0,1.0,5,2.383652499999698,2.584558399999878,0,1.608725900000536,1.8097883000000365,7,1.5940129000000525,1.761378700000023,,,,,72597,60.0,
152,152,90,0,-1,-1,0,0.0969100130080564,None,,,,,,,,,session,199.53048279999985,144.0,2.0,72.0,1.0,5,1.1106184000000212,1.2845140999997966,6,1.3861615999994683,1.5364964000000327,7,2.103567400000429,2.2217798000001494,,,,,72597,60.0,
-152,152,-45,0,-1,-1,0,0.0969100130080564,None,,,,,,,,,session,208.6574074,168.0,2.0,72.0,1.0,2,2.01067729999977,2.210663200000454,1,1.5816009999998641,1.764978400000473,7,1.5785639000005176,1.7128588000005038,,,,,72597,60.0,
,,,0,-1,-1,0,0.0969100130080564,None,materials/instructions\10_staircase_start.png,218.56017659999998,246.65700749999996,0,27.968900400000166,28.094516799999838,0.0191820000000007,28.100365500000407,,,,,,,,,,,,,,,,,,,,72597,60.0,
,,,0,0,-1,0,0.0969100130080564,0.4,,,,,,,,,staircase,246.66896090000046,156.0,2.0,72.0,0.4,,,,1,1.6027571000004173,1.7713971000002857,,,,1,,,,72597,60.0,
,,,0,1,-1,0,0.0969100130080564,0.32,,,,,,,,,staircase,252.55574439999964,150.0,2.0,72.0,0.32,,,,7,0.7608348000003389,0.980191399999967,,,,1,,,,72597,60.0,
,,,0,2,-1,0,0.0969100130080564,0.256,,,,,,,,,staircase,257.32404289999977,156.0,2.0,72.0,0.256,,,,0,0.8260873999997784,1.0421321000003445,,,,1,,,,72597,60.0,
,,,0,3,-1,0,0.0969100130080564,0.2048,,,,,,,,,staircase,262.25971260000006,144.0,2.0,72.0,0.2048,,,,7,0.9281134000002567,1.1286790000003748,,,,1,,,,72597,60.0,
,,,0,4,-1,0,0.0969100130080564,0.16384,,,,,,,,,staircase,267.0770386000004,126.0,2.0,72.0,0.16384,,,,7,0.3738916000002064,0.588533400000415,,,,1,,,,72597,60.0,
,,,0,5,-1,0,0.0969100130080564,0.13107200000000002,,,,,,,,,staircase,271.0626960999998,138.0,2.0,72.0,0.13107200000000002,,,,0,0.2968721999995978,0.49824699999953737,,,,1,,,,72597,60.0,
,,,0,6,-1,0,0.0969100130080564,0.10485760000000002,,,,,,,,,staircase,275.17389209999965,180.0,2.0,72.0,0.10485760000000002,,,,7,0.829097400000137,1.062806200000523,,,,1,,,,72597,60.0,
,,,0,7,-1,0,0.0969100130080564,0.08388608000000002,,,,,,,,,staircase,280.54141679999975,180.0,2.0,72.0,0.08388608000000002,,,,1,1.1293476999999257,1.3462900999993508,,,,1,,,,72597,60.0,
,,,0,8,-1,0,0.0969100130080564,0.06710886400000002,,,,,,,,,staircase,286.2277193,150.0,2.0,72.0,0.06710886400000002,,,,1,1.2412022999997134,1.4581660999992891,,,,1,,,,72597,60.0,
,,,0,9,-1,0,0.0969100130080564,0.053687091200000016,,,,,,,,,staircase,291.5014936999996,132.0,2.0,72.0,0.053687091200000016,,,,1,1.7393462,1.9552151000007143,,,,1,,,,72597,60.0,
,,,0,10,-1,0,0.0969100130080564,0.04294967296000001,,,,,,,,,staircase,297.3550615000004,168.0,2.0,72.0,0.04294967296000001,,,,1,0.6617086999995081,0.8125193999994735,,,,1,,,,72597,60.0,
,,,0,11,-1,0,0.0969100130080564,0.034359738368000006,,,,,,,,,staircase,302.2763444000002,144.0,2.0,72.0,0.034359738368000006,,,,7,1.064285700000255,1.2634656000000177,,,,1,,,,72597,60.0,
,,,0,12,-1,0,0.0969100130080564,0.027487790694400004,,,,,,,,,staircase,307.24430310000025,180.0,2.0,72.0,0.027487790694400004,,,,1,0.8591721000002508,1.0267801999998483,,,,1,,,,72597,60.0,
,,,0,13,-1,0,0.0969100130080564,0.021990232555520003,,,,,,,,,staircase,312.58446019999974,132.0,2.0,72.0,0.021990232555520003,,,,7,0.5703966999999466,0.7235495000004448,,,,1,,,,72597,60.0,
,,,0,14,-1,0,0.0969100130080564,0.017592186044416,,,,,,,,,staircase,317.4247610000002,150.0,2.0,72.0,0.017592186044416,,,,7,3.34472310000001,3.5950134000004255,,,,1,,,,72597,60.0,
,,,0,15,-1,0,0.0969100130080564,0.014073748835532801,,,,,,,,,staircase,324.8419322999998,126.0,2.0,72.0,0.014073748835532801,,,,6,1.397445499999776,1.5975165999998353,,,,0,,,,72597,60.0,
,,,0,16,-1,0,0.0969100130080564,0.017592186044416,,,,,,,,,staircase,329.8442298,180.0,2.0,72.0,0.017592186044416,,,,6,5.357500399999481,5.553502799999478,,,,0,,,,72597,60.0,
,,,0,17,-1,0,0.0969100130080564,0.021990232555520003,,,,,,,,,staircase,339.7050188000003,174.0,2.0,72.0,0.021990232555520003,,,,6,1.8783677999999782,2.028431599999749,,,,1,,,,72597,60.0,
,,,0,18,-1,0,0.0969100130080564,0.017592186044416,,,,,,,,,staircase,345.93988249999984,144.0,2.0,72.0,0.017592186044416,,,,0,4.032764800000223,4.1828716999998505,,,,1,,,,72597,60.0,
,,,0,19,-1,0,0.0969100130080564,0.014073748835532801,,,,,,,,,staircase,353.83095930000036,162.0,2.0,72.0,0.014073748835532801,,,,0,1.3761708000001818,1.5735913999997138,,,,1,,,,72597,60.0,
,,,0,20,-1,0,0.0969100130080564,0.01125899906842624,,,,,,,,,staircase,359.8082809999996,126.0,2.0,72.0,0.01125899906842624,,,,6,6.116205199999968,6.316256900000553,,,,0,,,,72597,60.0,
,,,0,21,-1,0,0.0969100130080564,0.014073748835532801,,,,,,,,,staircase,369.5435338999996,180.0,2.0,72.0,0.014073748835532801,,,,7,4.503179799999998,4.636644400000478,,,,0,,,,72597,60.0,
,,,0,22,-1,0,0.0969100130080564,0.017592186044416,,,,,,,,,staircase,378.4988591000001,126.0,2.0,72.0,0.017592186044416,,,,1,2.339074999999866,2.6724598000000697,,,,1,,,,72597,60.0,
,,,0,23,-1,0,0.0969100130080564,0.014073748835532801,,,,,,,,,staircase,385.2387606000002,168.0,2.0,72.0,0.014073748835532801,,,,7,1.1775280000001658,1.396509000000151,,,,1,,,,72597,60.0,
,,,0,24,-1,0,0.0969100130080564,0.01125899906842624,,,,,,,,,staircase,390.76095890000033,162.0,2.0,72.0,0.01125899906842624,,,,6,1.0868537000005745,1.337635400000181,,,,1,,,,72597,60.0,
,,,0,25,-1,0,0.0969100130080564,0.009007199254740993,,,,,,,,,staircase,396.1114644999998,126.0,2.0,72.0,0.009007199254740993,,,,1,1.0104331000002276,1.2608305000003384,,,,1,,,,72597,60.0,
,,,0,26,-1,0,0.0969100130080564,0.007205759403792794,,,,,,,,,staircase,400.7818377000003,126.0,2.0,72.0,0.007205759403792794,,,,6,3.8377918999995018,4.037715299999945,,,,0,,,,72597,60.0,
,,,0,27,-1,0,0.0969100130080564,0.009007199254740993,,,,,,,,,staircase,408.8396289000002,144.0,2.0,72.0,0.009007199254740993,,,,0,1.5046928000001571,1.7048906999998508,,,,0,,,,72597,60.0,
,,,0,28,-1,0,0.0969100130080564,0.01125899906842624,,,,,,,,,staircase,414.2756042000001,144.0,2.0,72.0,0.01125899906842624,,,,1,2.032444899999973,2.446574999999939,,,,1,,,,72597,60.0,
,,,0,29,-1,0,0.0969100130080564,0.009007199254740993,,,,,,,,,staircase,420.4288408000002,144.0,2.0,72.0,0.009007199254740993,,,,6,1.2110726999999315,1.4099207999997816,,,,0,,,,72597,60.0,
,,,0,30,-1,0,0.0969100130080564,0.01125899906842624,,,,,,,,,staircase,425.7412261999998,144.0,2.0,72.0,0.01125899906842624,,,,7,1.5988837000004423,1.8320832999997947,,,,1,,,,72597,60.0,
,,,0,31,-1,0,0.0969100130080564,0.009007199254740993,,,,,,,,,staircase,431.3256259,180.0,2.0,72.0,0.009007199254740993,,,,0,3.9129922000001898,4.146555999999691,,,,0,,,,72597,60.0,
,,,0,32,-1,0,0.0969100130080564,0.01125899906842624,,,,,,,,,staircase,439.79550519999975,126.0,2.0,72.0,0.01125899906842624,,,,6,3.784695400000601,3.8729109000005337,,,,0,,,,72597,60.0,
,,,0,33,-1,0,0.0969100130080564,0.014073748835532801,,,,,,,,,staircase,447.0747320999999,162.0,2.0,72.0,0.014073748835532801,,,,1,1.0548394999996162,1.4233096999996633,,,,0,,,,72597,60.0,
,,,0,34,-1,0,0.0969100130080564,0.017592186044416,,,,,,,,,staircase,452.72823679999965,162.0,2.0,72.0,0.017592186044416,,,,6,0.9285817999998471,1.17962819999957,,,,0,,,,72597,60.0,
,,,0,35,-1,0,0.0969100130080564,0.021990232555520003,,,,,,,,,staircase,457.92625229999976,150.0,2.0,72.0,0.021990232555520003,,,,0,0.9371744000000035,1.1366425999995045,,,,1,,,,72597,60.0,
,,,0,36,-1,0,0.0969100130080564,0.017592186044416,,,,,,,,,staircase,462.87867319999987,168.0,2.0,72.0,0.017592186044416,,,,0,0.010842599999705271,0.014603799999349576,,,,0,,,,72597,60.0,
,,,0,37,-1,0,0.0969100130080564,0.021990232555520003,,,,,,,,,staircase,467.0061617000001,138.0,2.0,72.0,0.021990232555520003,,,,1,1.7909083000004102,2.157671400000254,,,,0,,,,72597,60.0,
,,,0,38,-1,0,0.0969100130080564,0.027487790694400004,,,,,,,,,staircase,473.3251190000001,144.0,2.0,72.0,0.027487790694400004,,,,0,3.845064399999501,4.128676999999698,,,,0,,,,72597,60.0,
,,,0,39,-1,0,0.0969100130080564,0.034359738368000006,,,,,,,,,staircase,481.1595496,156.0,2.0,72.0,0.034359738368000006,,,,7,0.8906787999994776,1.1073627999994642,,,,1,,,,72597,60.0,
,,,0,40,-1,0,0.0969100130080564,0.027487790694400004,,,,,,,,,staircase,486.18091170000025,150.0,2.0,72.0,0.027487790694400004,,,,6,0.8014797000005274,0.9873176000000967,,,,1,,,,72597,60.0,
,,,0,41,-1,0,0.0969100130080564,0.021990232555520003,,,,,,,,,staircase,491.10834630000045,144.0,2.0,72.0,0.021990232555520003,,,,6,0.5235874999998487,0.7070337000004656,,,,1,,,,72597,60.0,
,,,0,42,-1,0,0.0969100130080564,0.017592186044416,,,,,,,,,staircase,495.80650200000036,162.0,2.0,72.0,0.017592186044416,,,,6,0.5418819000005897,0.7253397000004043,,,,1,,,,72597,60.0,
,,,0,43,-1,0,0.0969100130080564,0.014073748835532801,,,,,,,,,staircase,500.54119210000044,168.0,2.0,72.0,0.014073748835532801,,,,7,3.6006986000002144,3.8015433000000485,,,,0,,,,72597,60.0,
,,,0,44,-1,0,0.0969100130080564,0.017592186044416,,,,,,,,,staircase,508.4486358000004,144.0,2.0,72.0,0.017592186044416,,,,1,1.583943999999974,1.9339429000001473,,,,0,,,,72597,60.0,
,,,0,45,-1,0,0.0969100130080564,0.021990232555520003,,,,,,,,,staircase,514.2596786000004,144.0,2.0,72.0,0.021990232555520003,,,,7,1.079484599999887,1.2965583999994124,,,,0,,,,72597,60.0,
,,,0,46,-1,0,0.0969100130080564,0.027487790694400004,,,,,,,,,staircase,519.2746097999998,168.0,2.0,72.0,0.027487790694400004,,,,7,0.6275945999996111,0.8425198999993881,,,,1,,,,72597,60.0,
,,,0,47,-1,0,0.0969100130080564,0.021990232555520003,,,,,,,,,staircase,524.2248927,144.0,2.0,72.0,0.021990232555520003,,,,1,3.6719982000004165,4.004230399999869,,,,0,,,,72597,60.0,
,,,0,48,-1,0,0.0969100130080564,0.027487790694400004,,,,,,,,,staircase,531.9342822999997,126.0,2.0,72.0,0.027487790694400004,,,,7,0.3050665000000663,0.5050896000002467,,,,1,,,,72597,60.0,
,,,0,49,-1,0,0.0969100130080564,0.021990232555520003,,,,,,,,,staircase,536.4925794999999,150.0,2.0,72.0,0.021990232555520003,,,,6,1.8485258000000613,2.0306432999996105,,,,0,,,,72597,60.0,
,,,0,50,-1,0,0.0969100130080564,0.027487790694400004,,,,,,,,,staircase,542.3395787,156.0,2.0,72.0,0.027487790694400004,,,,7,0.691547299999911,0.8251942999995663,,,,1,,,,72597,60.0,
,,,0,51,-1,0,0.0969100130080564,0.021990232555520003,,,,,,,,,staircase,547.0767372,144.0,2.0,72.0,0.021990232555520003,,,,1,3.242733999999473,3.593878799999402,,,,0,,,,72597,60.0,
,,,0,52,-1,0,0.0969100130080564,0.027487790694400004,,,,,,,,,staircase,554.3830912000003,138.0,2.0,72.0,0.027487790694400004,,,,1,1.1686156000005212,1.455254600000444,,,,1,,,,72597,60.0,
,,,0,53,-1,0,0.0969100130080564,0.021990232555520003,,,,,,,,,staircase,560.0931718000002,150.0,2.0,72.0,0.021990232555520003,,,,1,1.2017154000004666,1.435082400000283,,,,0,,,,72597,60.0,
,,,0,54,-1,0,0.0969100130080564,0.027487790694400004,,,,,,,,,staircase,565.3413988000002,126.0,2.0,72.0,0.027487790694400004,,,,0,2.4159756999997626,2.6660261999995782,,,,0,,,,72597,60.0,
,,,0,55,-1,0,0.0969100130080564,0.034359738368000006,,,,,,,,,staircase,571.4142479000002,126.0,2.0,72.0,0.034359738368000006,,,,6,0.46949250000034226,0.6688592999998946,,,,1,,,,72597,60.0,
,,,0,56,-1,0,0.0969100130080564,0.027487790694400004,,,,,,,,,staircase,575.4984605999998,138.0,2.0,72.0,0.027487790694400004,,,,7,1.2714098000005833,1.5843924000000698,,,,1,,,,72597,60.0,
,,,0,57,-1,0,0.0969100130080564,0.021990232555520003,,,,,,,,,staircase,581.1390191,144.0,2.0,72.0,0.021990232555520003,,,,6,1.379739800000607,1.613679900000534,,,,0,,,,72597,60.0,
,,,0,58,-1,0,0.0969100130080564,0.027487790694400004,,,,,,,,,staircase,586.4615843000001,126.0,2.0,72.0,0.027487790694400004,,,,7,0.7777482999999847,1.044378499999766,,,,1,,,,72597,60.0,
,,,0,59,-1,0,0.0969100130080564,0.021990232555520003,,,,,,,,,staircase,590.9266287999999,144.0,2.0,72.0,0.021990232555520003,,,,1,3.934670499999811,4.401656099999855,,,,0,,,,72597,60.0,
,,,0,60,-1,0,0.0969100130080564,0.027487790694400004,,,,,,,,,staircase,599.0354964999997,144.0,2.0,72.0,0.027487790694400004,,,,0,0.1887681000007433,0.5187995000005685,,,,1,,,,72597,60.0,
,,,0,61,-1,0,0.0969100130080564,0.021990232555520003,,,,,,,,,staircase,603.9732934000003,156.0,2.0,72.0,0.021990232555520003,,,,7,1.6091818999993848,1.9260778999996546,,,,1,,,,72597,60.0,
,,,0,62,-1,0,0.0969100130080564,0.017592186044416,,,,,,,,,staircase,609.8083967000002,156.0,2.0,72.0,0.017592186044416,,,,1,3.595840099999805,3.9305333000002065,,,,1,,,,72597,60.0,
,,,0,63,-1,0,0.0969100130080564,0.014073748835532801,,,,,,,,,staircase,617.6490534000004,174.0,2.0,72.0,0.014073748835532801,,,,7,1.0870842000003904,1.2872306999997818,,,,0,,,,72597,60.0,
,,,0,64,-1,0,0.0969100130080564,0.017592186044416,,,,,,,,,staircase,623.1599580000002,126.0,2.0,72.0,0.017592186044416,,,,7,0.01112490000014077,0.013063700000202516,,,,0,,,,72597,60.0,
,,,0,65,-1,0,0.0969100130080564,0.021990232555520003,,,,,,,,,staircase,626.9815617000004,132.0,2.0,72.0,0.021990232555520003,,,,1,0.9288017999997464,1.2122740000004342,,,,0,,,,72597,60.0,
,,,0,66,-1,0,0.0969100130080564,0.027487790694400004,,,,,,,,,staircase,631.7103950000001,150.0,2.0,72.0,0.027487790694400004,,,,0,0.39423250000072585,0.5936843000008594,,,,1,,,,72597,60.0,
,,,0,67,-1,0,0.0969100130080564,0.021990232555520003,,,,,,,,,staircase,636.1113408000001,144.0,2.0,72.0,0.021990232555520003,,,,7,0.6696830999999293,0.8699589999996533,,,,1,,,,72597,60.0,
,,,0,68,-1,0,0.0969100130080564,0.017592186044416,,,,,,,,,staircase,640.6830991999996,180.0,2.0,72.0,0.017592186044416,,,,7,0.7675240999997186,0.9676584999997431,,,,0,,,,72597,60.0,
,,,0,69,-1,0,0.0969100130080564,0.021990232555520003,,,,,,,,,staircase,646.2054595999998,138.0,2.0,72.0,0.021990232555520003,,,,1,3.4801702000004298,3.8137130000004618,,,,0,,,,72597,60.0,
,,,0,-1,-1,0,,,materials/instructions\11_session_start.png,653.7970827999998,676.0088698,0,22.059749400000328,22.209810500000458,0.015042600000015227,22.21809309999935,,,,,,,,,,,,,,,,,,,,72597,60.0,
,,,0,-1,-1,0,,,,,,,,,,,,,,,,,,,,,,,,,,,0.022974295462379526,,,72597,60.0,
152,152,0,0,0,0,1,,,,,,,,,,,session,676.0263992,144.0,2.0,72.0,0.022974295462379526,5,3.362326000000394,3.5958043999999063,0,2.480493000000024,2.6475504,0,1.6027125999999043,1.7140559999998004,,,54.0,60.0,72597,60.0,
-152,-152,0,0,1,1,13,,,,,,,,,,,session,689.7584687999997,150.0,2.0,72.0,0.022974295462379526,3,1.410002099999474,1.62695100000019,0,0.8130281000003379,1.045416799999657,1,3.8598109000004115,4.076581700000133,,,48.0,66.0,72597,60.0,
-152,-152,-45,0,2,2,12,,,,,,,,,,,session,702.6809369000002,162.0,2.0,72.0,0.022974295462379526,2,3.04628270000012,3.263798599999973,7,3.0422598000004655,3.192083800000546,1,3.2756921000000148,3.475834599999871,,,48.0,60.0,72597,60.0,
-152,152,90,0,3,3,7,,,,,,,,,,,session,718.5615301999997,144.0,2.0,72.0,0.022974295462379526,3,2.2073120000004565,2.490715099999761,0,1.5318259999994552,1.7510481999997864,0,0.31314949999978126,0.4978246999999101,,,60.0,72.0,72597,60.0,
-152,152,45,0,4,4,6,,,,,,,,,,,session,729.3515103,138.0,2.0,72.0,0.022974295462379526,5,3.3567577999992864,3.558266299999559,6,2.1444995000001654,2.3388161000002583,0,1.0035686000001078,1.1714198999998189,,,54.0,48.0,72597,60.0,
-152,152,-45,0,5,5,4,,,,,,,,,,,session,741.9635326999996,156.0,2.0,72.0,0.022974295462379526,2,1.8207228000001123,2.137677900000199,0,1.022302800000034,1.156093300000066,0,0.29417110000031244,0.5275972999997975,,,60.0,48.0,72597,60.0,
152,152,-45,0,6,6,0,,,,,,,,,,,session,751.6351145999997,138.0,2.0,72.0,0.022974295462379526,5,1.0059755000002042,1.2392806000007113,1,1.978783000000476,2.193151000000398,1,3.1806507999999667,3.497351300000446,,,69.0,54.0,72597,60.0,
-152,-152,90,0,7,7,15,,,,,,,,,,,session,764.6271274000001,180.0,2.0,72.0,0.022974295462379526,2,3.1169458000003942,3.3169633000006797,0,0.010772399999950721,0.12819589999980963,0,0.31300150000060967,0.46288600000025326,,,72.0,48.0,72597,60.0,
152,152,45,0,8,8,2,,,,,,,,,,,session,774.9864504999996,168.0,2.0,72.0,0.022974295462379526,5,1.3843531000002258,1.581566500000008,7,3.012652899999921,3.181269499999871,1,1.4942959999998493,1.6935046999997212,,,69.0,57.0,72597,60.0,
-152,-152,45,0,9,9,14,,,,,,,,,,,session,788.3966561999996,132.0,2.0,72.0,0.022974295462379526,5,1.9127693999998883,2.096280300000217,0,0.8794587000002139,1.0621116000002075,1,0.5663135999993756,0.7832040999992387,,,66.0,54.0,72597,60.0,
-152,152,0,0,10,10,5,,,,,,,,,,,session,797.9873115999999,180.0,2.0,72.0,0.022974295462379526,4,2.189414399999805,2.423225600000478,1,2.322910600000796,2.606393700000808,1,1.1960011000001032,1.5128758999999263,,,69.0,63.0,72597,60.0,
152,-152,-45,0,11,11,8,,,,,,,,,,,session,811.8311432999999,168.0,2.0,72.0,0.022974295462379526,4,1.2131583000000319,1.4299034000005122,1,1.8762245999996594,2.143673300000046,1,0.5735814999998183,0.7870872999992571,,,69.0,63.0,72597,60.0,
152,-152,0,0,12,12,9,,,,,,,,,,,session,822.6603001000003,174.0,2.0,72.0,0.022974295462379526,3,3.3457017999999152,3.561081599999852,0,0.5615825000004406,0.7285922000000937,0,0.2618204999998852,0.5298407000000225,,,48.0,69.0,72597,60.0,
152,-152,45,0,13,13,10,,,,,,,,,,,session,833.9644099999996,132.0,2.0,72.0,0.022974295462379526,2,3.2948882000000594,3.5616139000003386,0,1.8438357999993968,2.044205199999851,0,0.2394757000001846,0.418950300000688,,,54.0,72.0,72597,60.0,
152,152,90,0,14,14,3,,,,,,,,,,,session,845.7438228000001,138.0,2.0,72.0,0.022974295462379526,5,2.4807948000006945,2.7971244000000297,6,2.8091973999999027,2.9926249999998618,0,1.0961889000000156,1.2796165999998266,,,60.0,69.0,72597,60.0,
152,-152,90,0,15,15,11,,,,,,,,,,,session,858.7332557999998,150.0,2.0,72.0,0.022974295462379526,5,2.9610813999997845,3.135523799999646,6,0.4370971999996982,0.5706460000001243,1,0.5285418000003119,0.7086291000005076,,,54.0,57.0,72597,60.0,
-152,-152,90,1,0,16,15,,,,,,,,,,,session,868.9619794,150.0,2.0,72.0,0.022974295462379526,3,2.508412500000304,2.80887950000033,0,3.9670869000001403,4.118156100000306,0,0.011068900000282156,0.012903900000310387,,,54.0,57.0,72597,60.0,
-152,-152,0,1,1,17,13,,,,,,,,,,,session,881.7169516000004,180.0,2.0,72.0,0.022974295462379526,3,3.471361299999444,3.6884155999996437,0,1.307267000000138,1.4935864000008223,0,0.6430290000007517,0.8431505000007746,,,63.0,51.0,72597,60.0,
152,-152,0,1,2,18,9,,,,,,,,,,,session,894.0946948000001,144.0,2.0,72.0,0.022974295462379526,4,1.0919991000000664,1.3258239999995567,0,1.4458920999995826,1.6791683000001285,1,0.4063873000004605,0.7080931000000419,,,60.0,54.0,72597,60.0,
152,152,90,1,3,19,3,,,,,,,,,,,session,903.5514977000003,168.0,2.0,72.0,0.022974295462379526,5,1.0450080000000526,1.2115814999997383,6,0.35356709999996383,0.4998240999993868,1,0.27542280000125174,0.468276200001128,,,60.0,69.0,72597,60.0,
152,152,90,1,3,19,3,,,materials/instructions\12_break.png,912.2018111000007,923.9474223000007,0,11.56209619999936,11.743656999999075,0.02284769999823766,11.751029999999446,,,,,,,,,,,,,,,,,,,,72597,60.0,
-152,152,-45,1,4,20,4,,,,,,,,,,,session,923.9636019,162.0,2.0,72.0,0.022974295462379526,2,1.4407099000000017,1.6072991000000911,1,0.4597816999994393,0.6332726000000548,6,0.9865984000007302,1.1198617000009108,,,66.0,57.0,72597,60.0,
152,-152,-45,1,5,21,8,,,,,,,,,,,session,933.5773722000004,156.0,2.0,72.0,0.022974295462379526,5,4.194287099999201,4.4117596999985835,0,0.36132680000082473,0.5622037000011915,0,0.011085000000093714,0.01299509999989823,,,54.0,66.0,72597,60.0,
-152,152,45,1,6,22,6,,,,,,,,,,,session,944.7321442000002,144.0,2.0,72.0,0.022974295462379526,3,2.3662279000000126,2.7989276999996946,0,0.8812413000014203,1.0146686000007321,0,0.6924882999992406,0.8563156999989587,,,48.0,54.0,72597,60.0,
152,-152,90,1,7,23,11,,,,,,,,,,,session,954.9443774000001,162.0,2.0,72.0,0.022974295462379526,5,2.56213679999928,2.7252241000005597,0,1.2430985999999393,1.4619431999999506,0,0.629399999999805,0.8293653000000631,,,51.0,72.0,72597,60.0,
-152,-152,-45,1,8,24,12,,,,,,,,,,,session,966.4499418000005,180.0,2.0,72.0,0.022974295462379526,3,1.4629502999996475,1.6795866999982536,1,0.5315628999996989,0.7822147000006225,1,1.0820743000003858,1.2871261000000231,,,60.0,57.0,72597,60.0,
-152,152,0,1,9,25,5,,,,,,,,,,,session,976.5974068999994,156.0,2.0,72.0,0.022974295462379526,2,1.2236781999999948,1.4064266000004864,0,0.3782463999996253,0.5436835000000428,6,1.559398899998996,1.7263328999997611,,,69.0,69.0,72597,60.0,
-152,-152,45,1,10,26,14,,,,,,,,,,,session,987.0969527999996,168.0,2.0,72.0,0.022974295462379526,2,2.80628760000036,3.022512600000482,7,0.9305134000005637,1.1673090000003867,1,0.5361563999995269,0.7861850999997841,,,63.0,54.0,72597,60.0,
152,152,45,1,11,27,2,,,,,,,,,,,session,998.2822750999994,180.0,2.0,72.0,0.022974295462379526,5,1.0932811999991827,1.276377299998785,7,0.4387984000004508,0.6059893999990891,6,0.3257778999995935,0.4591137000006711,,,54.0,63.0,72597,60.0,
-152,152,90,1,12,28,7,,,,,,,,,,,session,1007.5470218,150.0,2.0,72.0,0.022974295462379526,2,2.0650628000003053,2.281885300000795,6,0.34245849999933853,0.49348599999939324,1,0.5476799999996729,0.7657830999996804,,,48.0,54.0,72597,60.0,
152,152,-45,1,13,29,0,,,,,,,,,,,session,1016.7373660000003,126.0,2.0,72.0,0.022974295462379526,5,1.9166877000006934,2.101089400001001,7,1.6773714999999356,1.844016199998805,1,0.3543532999992749,0.5700725999995484,,,66.0,60.0,72597,60.0,
152,-152,45,1,14,30,10,,,,,,,,,,,session,1026.9445258000005,126.0,2.0,72.0,0.022974295462379526,4,1.1470157999992807,1.3654205000002548,7,1.0603354000013496,1.227501100000154,1,0.330560800000967,0.49755159999949683,,,72.0,57.0,72597,60.0,
152,152,0,1,15,31,1,,,,,,,,,,,session,1035.7340224000009,156.0,2.0,72.0,0.022974295462379526,5,3.404613099999551,3.649228000000221,0,1.5423910000008618,1.6703778999999486,0,0.5103615000007267,0.7609253999999055,,,51.0,60.0,72597,60.0,
152,152,45,2,0,32,2,,,,,,,,,,,session,1047.7642067000006,138.0,2.0,72.0,0.022974295462379526,2,2.1613057000013214,2.394433299999946,0,0.6740878999989945,0.8742387000002054,0,0.011854599999423954,0.09068239999942307,,,57.0,66.0,72597,60.0,
152,-152,90,2,1,33,11,,,,,,,,,,,session,1056.9332863999998,156.0,2.0,72.0,0.022974295462379526,4,0.8137380000007397,1.0305764000004274,6,0.32540309999967576,0.458196699999462,1,1.4208576999990328,1.6092291999993904,,,57.0,63.0,72597,60.0,
152,152,-45,2,2,34,0,,,,,,,,,,,session,1066.0829514000006,156.0,2.0,72.0,0.022974295462379526,4,2.3603225000006205,2.5269972999994934,0,0.9649539999991248,1.0983527999997023,0,1.4610725000002276,1.6634937999988324,,,69.0,63.0,72597,60.0,
152,-152,0,2,3,35,9,,,,,,,,,,,session,1077.7685083000006,138.0,2.0,72.0,0.022974295462379526,2,3.7834500999997545,4.017078599999877,0,0.4692299999987881,0.7359753999990062,0,0.6356935999992857,0.8566066000003048,,,60.0,63.0,72597,60.0,
-152,-152,-45,2,4,36,12,,,,,,,,,,,session,1089.1841183000006,156.0,2.0,72.0,0.022974295462379526,5,1.8816138000001956,2.0817554000004748,0,1.4253061999988859,1.6587362999998732,0,0.010951500000373926,0.012884000001577078,,,72.0,54.0,72597,60.0,
-152,-152,0,2,5,37,13,,,,,,,,,,,session,1099.1017082999997,162.0,2.0,72.0,0.022974295462379526,2,2.6982134000008955,2.9484408000007534,0,0.8449154999998427,0.9624076000000059,0,0.011354000000210362,0.013342600001124083,,,51.0,63.0,72597,60.0,
152,-152,-45,2,6,38,8,,,,,,,,,,,session,1109.0879966999992,162.0,2.0,72.0,0.022974295462379526,2,1.1582981999999902,1.3235464000008506,7,0.7135729999990872,0.8645845999999437,1,0.4276678999995056,0.5929274999998597,,,72.0,60.0,72597,60.0,
152,152,90,2,7,39,3,,,,,,,,,,,session,1118.7307472999992,138.0,2.0,72.0,0.022974295462379526,5,1.9815675999998348,2.165310299998964,0,0.29528749999917636,0.4457913999995071,1,1.0830167999993137,1.2491503999990528,,,54.0,54.0,72597,60.0,
152,152,90,2,7,39,3,,,materials/instructions\12_break.png,1128.1650282,1138.3809128999992,0,10.077938999998878,10.213631999999052,0.024340500000107568,10.219132099999115,,,,,,,,,,,,,,,,,,,,72597,60.0,
-152,-152,45,2,8,40,14,,,,,,,,,,,session,1138.3941519999998,156.0,2.0,72.0,0.022974295462379526,3,1.3257227999984025,1.6763863999985915,7,1.0450152000012167,1.176524900000004,6,0.33052649999990535,0.46392219999870576,,,63.0,60.0,72597,60.0,
-152,152,0,2,9,41,5,,,,,,,,,,,session,1147.8208005000006,132.0,2.0,72.0,0.022974295462379526,2,3.1193499000000884,3.319664599999669,7,1.4405755000007048,1.6883371000003535,1,0.6415553000006184,0.8916215999997803,,,51.0,51.0,72597,60.0,
-152,152,-45,2,10,42,4,,,,,,,,,,,session,1159.1137310999993,150.0,2.0,72.0,0.022974295462379526,2,1.1439983000000211,1.3106432999993558,1,0.7807542000009562,0.9657880000013392,1,0.27951819999907457,0.4448814000006678,,,72.0,72.0,72597,60.0,
152,-152,45,2,11,43,10,,,,,,,,,,,session,1168.1851672000003,126.0,2.0,72.0,0.022974295462379526,5,2.795294499999727,2.9958913999998913,0,0.534809500000847,0.756260400001338,0,1.7250829999993584,1.9397566999996343,,,66.0,60.0,72597,60.0,
152,152,0,2,12,44,1,,,,,,,,,,,session,1179.5339381000003,162.0,2.0,72.0,0.022974295462379526,5,0.9921694999993633,1.1588692000004812,0,1.6443393000008655,1.8275568999997631,1,1.0661127000003034,1.280655200000183,,,63.0,57.0,72597,60.0,
-152,152,90,2,13,45,7,,,,,,,,,,,session,1189.9666117999996,126.0,2.0,72.0,0.022974295462379526,2,1.2367832999989332,1.4215125999999145,6,0.22975020000012591,0.39629280000008293,1,0.22452939999857335,0.35313009999845235,,,63.0,60.0,72597,60.0,
-152,-152,90,2,14,46,15,,,,,,,,,,,session,1197.7460837999997,126.0,2.0,72.0,0.022974295462379526,3,0.5572295000001759,0.756453900001361,6,0.3794047999999748,0.4787916999994195,1,0.2409126999991713,0.3911145999991277,,,63.0,51.0,72597,60.0,
-152,152,45,2,15,47,6,,,,,,,,,,,session,1205.2330692000005,168.0,2.0,72.0,0.022974295462379526,5,4.2150681000002805,4.532352899999751,0,0.24188219999996363,0.4768973999998707,0,0.01090199999998731,0.012818100000004051,,,69.0,54.0,72597,60.0,
-152,-152,-45,3,0,48,12,,,,,,,,,,,session,1216.5593777999993,168.0,2.0,72.0,0.022974295462379526,3,0.5304636000000755,0.7104364999995596,1,1.3919007999993482,1.6585566999983712,1,0.28312629999891215,0.4810808999991423,,,51.0,60.0,72597,60.0,
152,152,90,3,1,49,3,,,,,,,,,,,session,1226.1856460000008,156.0,2.0,72.0,0.022974295462379526,2,5.546519600000465,5.69657240000015,0,0.2981390000004467,0.4819040000002133,0,0.4752026999994996,0.5929968999989796,,,69.0,66.0,72597,60.0,
-152,152,-45,3,2,50,4,,,,,,,,,,,session,1239.2738474000007,150.0,2.0,72.0,0.022974295462379526,2,1.137498100000812,1.3034861000014644,1,1.0139593000003515,1.1971880000000965,1,0.6924269999999524,0.8594851000016206,,,51.0,72.0,72597,60.0,
152,-152,-45,3,3,51,8,,,,,,,,,,,session,1249.4187035999994,156.0,2.0,72.0,0.022974295462379526,2,3.079411999999138,3.3305182000003697,0,0.010947400000077323,0.16346580000026734,0,0.01084409999930358,0.012775699999110657,,,63.0,48.0,72597,60.0,
152,-152,0,3,4,52,9,,,,,,,,,,,session,1258.8181899,138.0,2.0,72.0,0.022974295462379526,4,1.4830668000013247,1.6738973000010446,7,0.8732994000001781,1.0544683000007353,1,0.2427202999988367,0.4259671999989223,,,63.0,57.0,72597,60.0,
-152,152,45,3,5,53,6,,,,,,,,,,,session,1267.7348174999997,132.0,2.0,72.0,0.022974295462379526,2,1.0936187000006612,1.277328000000125,7,0.4399236999997811,0.5743271999999706,1,0.8985161000000517,1.0665150999993784,,,54.0,54.0,72597,60.0,
152,-152,45,3,6,54,10,,,,,,,,,,,session,1276.119784899999,180.0,2.0,72.0,0.022974295462379526,4,1.1457209000000148,1.3462626000000455,7,0.849059699999998,0.999053499999718,1,0.2190654000005452,0.38156789999993634,,,48.0,66.0,72597,60.0,
-152,-152,0,3,7,55,13,,,,,,,,,,,session,1285.2898352999991,126.0,2.0,72.0,0.022974295462379526,2,2.4896129999997356,2.807872999999745,0,0.2768033000011201,0.4592616000009002,0,0.01093109999965236,0.012799399999494199,,,72.0,69.0,72597,60.0,
152,152,0,3,8,56,1,,,,,,,,,,,session,1295.0339035999996,150.0,2.0,72.0,0.022974295462379526,5,0.9761968000002526,1.1272308000006888,0,1.4118456999985938,1.581686899999113,1,1.7073913000003813,1.8742144999996526,,,72.0,54.0,72597,60.0,
-152,152,0,3,9,57,5,,,,,,,,,,,session,1305.6743202000007,126.0,2.0,72.0,0.022974295462379526,2,1.0556821999998647,1.1909708000002865,7,1.1096976999997423,1.2431087000004482,1,0.719049700001051,0.9523091000010027,,,63.0,51.0,72597,60.0,
-152,-152,90,3,10,58,15,,,,,,,,,,,session,1315.1867874999998,156.0,2.0,72.0,0.022974295462379526,2,3.776067900000271,4.076280700001007,0,3.2126367000000755,3.362714300001244,0,0.4988819999998668,0.6991163000002416,,,48.0,48.0,72597,60.0,
-152,-152,45,3,11,59,14,,,,,,,,,,,session,1329.0113726000009,150.0,2.0,72.0,0.022974295462379526,3,3.854168399999253,4.072242999998707,0,0.011330199999065371,0.01345949999995355,0,0.26175330000114627,0.5120781000005081,,,72.0,63.0,72597,60.0,
-152,-152,45,3,11,59,14,,,materials/instructions\12_break.png,1340.5340719999995,1358.3635277999992,0,17.69347790000029,17.82749270000022,0.01714209999954619,17.835114299999987,,,,,,,,,,,,,,,,,,,,72597,60.0,
152,152,-45,3,12,60,0,,,,,,,,,,,session,1358.3795462000007,174.0,2.0,72.0,0.022974295462379526,2,3.123263000001316,3.323282300001665,0,1.1227908000000753,1.272620800000368,0,0.243245300000126,0.377907399999458,,,48.0,51.0,72597,60.0,
152,152,45,3,13,61,2,,,,,,,,,,,session,1369.3576483000006,180.0,2.0,72.0,0.022974295462379526,5,1.385567400000582,1.6021129000000656,7,1.1584387000002607,1.2960355000013806,1,0.30711890000020503,0.5078036000013526,,,48.0,66.0,72597,60.0,
-152,152,90,3,14,62,7,,,,,,,,,,,session,1379.2497711999995,150.0,2.0,72.0,0.022974295462379526,5,2.1157211999998253,2.26231320000079,1,1.9276824999997189,2.1971456999999646,1,0.34221160000015516,0.5589406999988569,,,69.0,48.0,72597,60.0,
152,-152,90,3,15,63,11,,,,,,,,,,,session,1390.1879581000003,126.0,2.0,72.0,0.022974295462379526,2,1.996944299999086,2.1812262999992527,7,1.4081353999990824,1.5592133999998623,1,0.5795903999987786,0.7948042999996687,,,63.0,57.0,72597,60.0,
-152,-152,0,4,0,64,13,,,,,,,,,,,session,1400.3028029000006,138.0,2.0,72.0,0.022974295462379526,2,4.679737100001148,4.879906699999992,0,0.12934669999958714,0.3655135999997583,0,0.011047800000596908,0.012921600000481703,,,63.0,48.0,72597,60.0,
-152,152,0,4,1,65,5,,,,,,,,,,,session,1411.1526201000006,156.0,2.0,72.0,0.022974295462379526,2,3.284836599999835,3.4861772999993264,0,0.5588108000010834,0.7380735999995522,0,1.1588767000012012,1.3259787999995751,,,60.0,48.0,72597,60.0,
152,152,90,4,2,66,3,,,,,,,,,,,session,1422.5994791000003,174.0,2.0,72.0,0.022974295462379526,2,3.308057899999767,3.6737010999986524,0,0.010946200000034878,0.012885400001323433,0,0.3252667000015208,0.4920842999999877,,,51.0,66.0,72597,60.0,
152,-152,-45,4,3,67,8,,,,,,,,,,,session,1433.0874326999992,168.0,2.0,72.0,0.022974295462379526,4,1.1296999000005599,1.3139649999993708,0,2.2102259999992384,2.3719750000000204,1,0.3297750999990967,0.5268097000007401,,,72.0,60.0,72597,60.0,
-152,152,-45,4,4,68,4,,,,,,,,,,,session,1443.7664391000008,168.0,2.0,72.0,0.022974295462379526,4,3.2532443000000058,3.47022029999971,0,1.9982247000007192,2.1483281000000716,0,0.28434960000049614,0.46559659999911673,,,48.0,60.0,72597,60.0,
152,152,0,4,5,69,1,,,,,,,,,,,session,1455.9258531000005,144.0,2.0,72.0,0.022974295462379526,4,3.120502800000395,3.3194144000008237,0,1.8511237000002438,1.9875195999993593,0,0.22557630000119389,0.4262276000008569,,,66.0,48.0,72597,60.0,
-152,-152,45,4,6,70,14,,,,,,,,,,,session,1467.4162160000005,132.0,2.0,72.0,0.022974295462379526,3,0.6469023000008747,0.7970972000002803,7,1.047744400000738,1.2303700000011304,1,0.8996024999996735,1.098873699998876,,,51.0,51.0,72597,60.0,
-152,-152,90,4,7,71,15,,,,,,,,,,,session,1475.9035525999998,174.0,2.0,72.0,0.022974295462379526,3,1.1942130000006728,1.425937600000907,6,0.7602410999988933,0.9103919999997743,1,0.011516000000483473,0.013496200001100078,,,72.0,63.0,72597,60.0,
152,-152,0,4,8,72,9,,,,,,,,,,,session,1484.8555944000009,126.0,2.0,72.0,0.022974295462379526,4,0.6587146000001667,0.8420747000000119,0,0.7312387000001763,0.9311816000008548,1,1.778451000000132,1.9783095000002504,,,66.0,69.0,72597,60.0,
152,-152,45,4,9,73,10,,,,,,,,,,,session,1494.7878453999992,162.0,2.0,72.0,0.022974295462379526,4,1.3118572999992466,1.4956469000007928,0,1.4652963999997155,1.7310548000004928,1,0.011054200000216952,0.2964869000006729,,,72.0,63.0,72597,60.0,
152,152,45,4,10,74,2,,,,,,,,,,,session,1504.7287096999999,138.0,2.0,72.0,0.022974295462379526,5,1.0522345999997924,1.232996999999159,7,0.513006499999392,0.6624363000009907,1,0.07544899999993504,0.2622260999996797,,,54.0,69.0,72597,60.0,
152,-152,90,4,11,75,11,,,,,,,,,,,session,1513.4045524000003,156.0,2.0,72.0,0.022974295462379526,4,1.2777071000000433,1.4438919999993232,6,0.3955514999997831,0.528900799999974,1,0.011748099999749684,0.013702000000193948,,,72.0,63.0,72597,60.0,
152,152,-45,4,12,76,0,,,,,,,,,,,session,1521.7097199999998,180.0,2.0,72.0,0.022974295462379526,5,0.9786882999997033,1.1455805999994482,6,0.9221608000007109,1.0779146000004403,1,0.011250300000028801,0.01316910000059579,,,54.0,48.0,72597,60.0,
-152,152,45,4,13,77,6,,,,,,,,,,,session,1530.1049176000006,174.0,2.0,72.0,0.022974295462379526,2,1.0607631999992009,1.2103657999996358,7,0.9972519000002649,1.1988857999986067,1,0.27428839999993215,0.4406220000000758,,,72.0,57.0,72597,60.0,
-152,152,90,4,14,78,7,,,,,,,,,,,session,1539.6198441999995,168.0,2.0,72.0,0.022974295462379526,2,2.974609500000952,3.1953130000001693,6,2.9641716000005545,3.1851614999995945,1,0.537851099999898,0.704193600000508,,,51.0,57.0,72597,60.0,
-152,-152,-45,4,15,79,12,,,,,,,,,,,session,1552.7878713,162.0,2.0,72.0,0.022974295462379526,3,1.2835168000001431,1.4335709000006318,1,2.097768300000098,2.2457666999998764,1,0.7590554999987944,0.9080718999994133,,,54.0,57.0,72597,60.0,
-152,-152,-45,4,15,79,12,,,materials/instructions\12_break.png,1563.4164229999997,1594.1763177999992,0,30.75762919999943,0.03254969999943569,0.02183080000031623,30.771729399999458,,,,,,,,,,,,,,,,,,,,72597,60.0,
-152,152,45,5,0,80,6,,,,,,,,,,,session,1594.1984903999992,126.0,2.0,72.0,0.022974295462379526,2,0.9826672999988659,1.1179687999992893,7,0.9138846999994712,1.0817032999984804,6,2.3027567000008275,2.419887399999425,,,66.0,48.0,72597,60.0,
152,152,0,5,1,81,1,,,,,,,,,,,session,1604.9194739999994,138.0,2.0,72.0,0.022974295462379526,5,0.6818913000006432,0.8654561999992438,0,0.8459669000003487,0.9960676999999123,1,1.1498432999997021,1.3176062000002275,,,66.0,57.0,72597,60.0,
-152,-152,45,5,2,82,14,,,,,,,,,,,session,1613.8938922000007,174.0,2.0,72.0,0.022974295462379526,5,1.3052203999995982,1.4383077999991656,0,2.7320744000007835,2.8989218000006076,1,0.010906600000453182,0.012785799999619485,,,66.0,72.0,72597,60.0,
152,152,90,5,3,83,3,,,,,,,,,,,session,1625.3563509000005,156.0,2.0,72.0,0.022974295462379526,5,0.9923727000004874,1.1267308999995294,6,0.2310059999999794,0.38111730000127864,1,0.011107100001026993,0.012989200000447454,,,66.0,51.0,72597,60.0,
152,-152,0,5,4,84,9,,,,,,,,,,,session,1632.8734381000004,156.0,2.0,72.0,0.022974295462379526,2,1.127930100001322,1.3114498000013555,7,0.2908329000001686,0.44196460000057414,1,0.25634119999995164,0.36873670000022685,,,72.0,51.0,72597,60.0,
152,152,-45,5,5,85,0,,,,,,,,,,,session,1641.1173910000007,162.0,2.0,72.0,0.022974295462379526,5,0.9953559000005043,1.178527000000031,1,2.2630679000012606,2.4135633999994752,1,0.3769379999994271,0.5603869000005943,,,69.0,69.0,72597,60.0,
-152,152,90,5,6,86,7,,,,,,,,,,,session,1651.7584586000003,138.0,2.0,72.0,0.022974295462379526,2,0.7588020999992295,0.9573046999994403,6,0.39855290000014065,0.531829800000196,1,0.12886640000033367,0.22845710000001418,,,57.0,63.0,72597,60.0,
-152,152,-45,5,7,87,4,,,,,,,,,,,session,1659.2263214999994,168.0,2.0,72.0,0.022974295462379526,5,3.1743351000004623,3.339409500000329,0,0.5336031999995612,0.7199856999995973,0,0.11212629999863566,0.27954899999895133,,,48.0,60.0,72597,60.0,
152,152,45,5,8,88,2,,,,,,,,,,,session,1670.1883874999994,126.0,2.0,72.0,0.022974295462379526,3,2.4297679999999673,2.596579799999745,0,1.193976599999587,1.3457601999998587,0,0.22894669999914186,0.3614668999998685,,,72.0,51.0,72597,60.0,
152,-152,-45,5,9,89,8,,,,,,,,,,,session,1680.0959133000006,174.0,2.0,72.0,0.022974295462379526,4,0.9903103000015108,1.1699500000013359,7,0.994851400000698,1.130754400001024,1,0.2627775999990263,0.46192270000028657,,,60.0,63.0,72597,60.0,
-152,-152,-45,5,10,90,12,,,,,,,,,,,session,1689.6683557000006,126.0,2.0,72.0,0.022974295462379526,3,4.096612800000003,4.296823799999402,0,0.3504049000002851,0.45040510000035283,0,0.010934800000541145,0.012803000001440523,,,63.0,66.0,72597,60.0,
-152,-152,90,5,11,91,15,,,,,,,,,,,session,1700.1217293,138.0,2.0,72.0,0.022974295462379526,3,0.5123341999988043,0.6795898000000307,6,0.2731487000000925,0.40836769999987155,1,0.2929430999993201,0.440944899999522,,,66.0,54.0,72597,60.0,
-152,152,0,5,12,92,5,,,,,,,,,,,session,1707.4388227999998,168.0,2.0,72.0,0.022974295462379526,2,0.6808583999991242,0.831001099999412,0,0.843071899998904,0.9946452999993198,1,0.20860370000082185,0.3763106999995216,,,54.0,60.0,72597,60.0,
152,-152,45,5,13,93,10,,,,,,,,,,,session,1715.8540977000002,150.0,2.0,72.0,0.022974295462379526,5,2.0809938999991573,2.262351299999864,6,0.41205190000073344,0.562338900001123,1,1.1467537000007724,1.2966620000006515,,,60.0,48.0,72597,60.0,
-152,-152,0,5,14,94,13,,,,,,,,,,,session,1725.6744346000005,168.0,2.0,72.0,0.022974295462379526,3,0.693302900001072,0.859091600001193,0,0.631455000000642,0.7623526000006677,1,0.22782290000031935,0.3774171999993996,,,54.0,57.0,72597,60.0,
152,-152,90,5,15,95,11,,,,,,,,,,,session,1733.7342932000001,162.0,2.0,72.0,0.022974295462379526,4,1.1923957999988488,1.4925207999986014,6,0.36391999999978,0.4975558000005549,1,0.046689799999512616,0.19728740000027756,,,69.0,66.0,72597,60.0,
152,-152,-45,6,0,96,8,,,,,,,,,,,session,1742.2723305000009,180.0,2.0,72.0,0.022974295462379526,4,0.5434034000008978,0.6956642000004649,7,1.165151599998353,1.307259699999122,1,0.14367420000053244,0.3223115000000689,,,51.0,66.0,72597,60.0,
-152,152,45,6,1,97,6,,,,,,,,,,,session,1750.9677077000006,162.0,2.0,72.0,0.022974295462379526,2,2.5435525000011694,2.695024900000135,0,0.19853369999873394,0.3486327999999048,0,0.042623100000128034,0.1792079000006197,,,66.0,48.0,72597,60.0,
-152,-152,-45,6,2,98,12,,,,,,,,,,,session,1760.4054709999991,168.0,2.0,72.0,0.022974295462379526,3,1.4361554000006436,1.6347777000009955,0,0.7290919000006397,0.9806335000012041,0,0.012103499999284395,0.01404499999989639,,,48.0,72.0,72597,60.0,
152,152,-45,6,3,99,0,,,,,,,,,,,session,1769.2788824000008,156.0,2.0,72.0,0.022974295462379526,5,1.1917544000007183,1.3412187000012636,1,1.7648793000007572,1.9818368000014743,1,0.22489060000043537,0.4410191999995732,,,63.0,72.0,72597,60.0,
152,152,-45,6,3,99,0,,,materials/instructions\12_break.png,1780.0699799000004,1823.5024203999992,0,43.28048959999978,43.43045080000047,0.017651899999691523,43.43787920000068,,,,,,,,,,,,,,,,,,,,72597,60.0,
-152,-152,90,6,4,100,15,,,,,,,,,,,session,1823.5185886999998,162.0,2.0,72.0,0.022974295462379526,2,2.7935827000001154,2.9281575000004523,0,0.4774919999999838,0.6949894999997923,0,0.01099889999932202,0.012941299999511102,,,60.0,69.0,72597,60.0,
-152,-152,0,6,5,101,13,,,,,,,,,,,session,1833.4625136999994,144.0,2.0,72.0,0.022974295462379526,3,0.5687090999999782,0.7578715999989072,0,0.2854372000001604,0.4735056999998051,1,0.2421002999999473,0.37549220000073547,,,57.0,66.0,72597,60.0,
-152,152,90,6,6,102,7,,,,,,,,,,,session,1840.9575740999999,174.0,2.0,72.0,0.022974295462379526,2,3.745485200000985,3.945722200000091,0,0.011063199999625795,0.013120199999320903,0,0.2769447999999102,0.4265802000008989,,,72.0,54.0,72597,60.0,
152,-152,0,6,7,103,9,,,,,,,,,,,session,1851.807554,150.0,2.0,72.0,0.022974295462379526,4,1.4800524999991467,1.679302500000631,0,0.27668240000093647,0.4782572000003711,1,0.28734760000043025,0.4429079000001366,,,72.0,63.0,72597,60.0,
-152,152,-45,6,8,104,4,,,,,,,,,,,session,1860.6067561999998,174.0,2.0,72.0,0.022974295462379526,4,1.3080599999993865,1.4919417000000976,1,0.6810354000008374,0.8471961000013835,1,0.31345990000045276,0.5126238000011654,,,51.0,72.0,72597,60.0,
-152,152,0,6,9,105,5,,,,,,,,,,,session,1870.2551463999998,150.0,2.0,72.0,0.022974295462379526,2,3.0470841999995173,3.2303100999997696,0,0.010922600000412785,0.01282560000072408,0,0.011230000000068685,0.013119600000209175,,,60.0,57.0,72597,60.0,
152,152,90,6,10,106,3,,,,,,,,,,,session,1879.4130761000006,156.0,2.0,72.0,0.022974295462379526,5,1.370952799999941,1.504729000000225,6,0.1761659999992844,0.32618469999943045,6,0.2122932000002038,0.3456628999992972,,,54.0,69.0,72597,60.0,
152,152,0,6,11,107,1,,,,,,,,,,,session,1888.1867692000005,138.0,2.0,72.0,0.022974295462379526,5,0.8117754999984754,0.9461332999999286,0,0.5749661000008928,0.7758133999996062,1,0.949118799999269,1.1493641999986721,,,63.0,63.0,72597,60.0,
-152,-152,45,6,12,108,14,,,,,,,,,,,session,1896.9091275,138.0,2.0,72.0,0.022974295462379526,2,2.763053700000455,2.9619309999998222,0,0.011056699999244302,0.12336580000010144,0,0.11936909999894851,0.291215999999622,,,66.0,54.0,72597,60.0,
152,-152,45,6,13,109,10,,,,,,,,,,,session,1906.0903657999997,132.0,2.0,72.0,0.022974295462379526,5,4.293565600000875,4.510163300001295,0,0.8778358999988995,1.128037399999812,0,0.9261267999991105,1.142975499999011,,,54.0,60.0,72597,60.0,
152,-152,90,6,14,110,11,,,,,,,,,,,session,1918.5245922000004,168.0,2.0,72.0,0.022974295462379526,4,0.9971081000003323,1.1652507999988302,6,0.19876079999994545,0.33319529999971564,6,0.3922340000008262,0.5031694999997853,,,60.0,66.0,72597,60.0,
152,152,45,6,15,111,2,,,,,,,,,,,session,1926.8849705999992,162.0,2.0,72.0,0.022974295462379526,5,1.4244871999999305,1.5730440999996063,7,0.34182460000010906,0.45839209999940067,6,0.298698599999625,0.4488696999997046,,,48.0,60.0,72597,60.0,
-152,-152,-45,7,0,112,12,,,,,,,,,,,session,1935.7243074999997,174.0,2.0,72.0,0.022974295462379526,4,1.1288067999994382,1.3456201999997575,0,0.28044650000083493,0.4147499999999127,1,0.531795199998669,0.6984572999990633,,,63.0,63.0,72597,60.0,
-152,152,45,7,1,113,6,,,,,,,,,,,session,1944.6287726,180.0,2.0,72.0,0.022974295462379526,2,0.752628400001413,0.9331923999998253,7,0.8581183000005694,1.0381362000007357,1,0.23388359999989916,0.33184150000124646,,,54.0,60.0,72597,60.0,
152,-152,90,7,2,114,11,,,,,,,,,,,session,1953.5902137999992,138.0,2.0,72.0,0.022974295462379526,4,1.0309478999988642,1.2478916000000027,6,0.2857346000000689,0.4191850000006525,1,0.7364215999987209,0.8855891000002885,,,48.0,66.0,72597,60.0,
-152,152,90,7,3,115,7,,,,,,,,,,,session,1961.7892860000002,138.0,2.0,72.0,0.022974295462379526,2,1.2825038999999379,1.432072600000538,7,0.8256511999989016,0.9923115000001417,6,0.594158800000514,0.7464337999990676,,,66.0,48.0,72597,60.0,
-152,152,0,7,4,116,5,,,,,,,,,,,session,1970.6174172,168.0,2.0,72.0,0.022974295462379526,2,1.1112479000003077,1.2926619999998366,7,1.4368842000003497,1.6536255999999412,1,0.7427489000001515,0.8593080999999074,,,63.0,48.0,72597,60.0,
152,-152,-45,7,5,117,8,,,,,,,,,,,session,1981.0052681000006,180.0,2.0,72.0,0.022974295462379526,2,2.3452711000009003,2.4777642999997624,0,1.429210399999647,1.6127668999997695,0,0.24566559999948367,0.41163369999958377,,,48.0,60.0,72597,60.0,
-152,152,-45,7,6,118,4,,,,,,,,,,,session,1991.7679161000005,138.0,2.0,72.0,0.022974295462379526,2,0.9430194000015035,1.1095617999999376,1,0.5501052999989042,0.699548099999447,6,0.6753492999996524,0.8231654000010167,,,48.0,63.0,72597,60.0,
-152,-152,90,7,7,119,15,,,,,,,,,,,session,2000.6874321999994,168.0,2.0,72.0,0.022974295462379526,3,2.115545899998324,2.29712870000003,1,3.2505505999997695,3.4836145999997825,1,0.5773891999997431,0.7767318999995041,,,72.0,66.0,72597,60.0,
-152,-152,90,7,7,119,15,,,materials/instructions\12_break.png,2013.8412447,2054.3592087000006,0,40.38302680000015,40.516147600001204,0.02403480000066338,40.52377879999949,,,,,,,,,,,,,,,,,,,,72597,60.0,
152,-152,0,7,8,120,9,,,,,,,,,,,session,2054.3750974000004,156.0,2.0,72.0,0.022974295462379526,4,1.266794299999674,1.4171495999999024,7,3.2640912999995635,3.413969699999143,1,0.29545470000084606,0.42777420000129496,,,63.0,54.0,72597,60.0,
-152,-152,45,7,9,121,14,,,,,,,,,,,session,2065.6392824999994,162.0,2.0,72.0,0.022974295462379526,3,0.7925915000014356,0.9591591999997036,7,0.831698599999072,0.9820300999999745,6,0.22387220000018715,0.3407200000001467,,,63.0,69.0,72597,60.0,
152,152,-45,7,10,122,0,,,,,,,,,,,session,2074.2761555000006,144.0,2.0,72.0,0.022974295462379526,5,0.8245636999999988,0.9579782000000705,1,1.0513698999984626,1.2182483999986289,1,0.2094518000012613,0.4041302000005089,,,51.0,69.0,72597,60.0,
152,152,90,7,11,123,3,,,,,,,,,,,session,2082.7195445000007,126.0,2.0,72.0,0.022974295462379526,5,1.2961856000001717,1.4787823000006028,6,0.14854469999954745,0.29628279999997176,1,0.22367940000003728,0.37387759999910486,,,60.0,60.0,72597,60.0,
152,152,0,7,12,124,1,,,,,,,,,,,session,2090.5732564,156.0,2.0,72.0,0.022974295462379526,2,2.4647253999992245,2.6144177000005584,0,0.18138990000079502,0.31485560000146506,0,0.011113799999293406,0.1457023000002664,,,51.0,48.0,72597,60.0,
-152,-152,0,7,13,125,13,,,,,,,,,,,session,2099.345584399999,126.0,2.0,72.0,0.022974295462379526,2,5.188523700000587,5.3384554000003845,0,0.2551822000004904,0.4051995000008901,0,0.01147810000111349,0.013388800000029732,,,48.0,69.0,72597,60.0,
152,152,45,7,14,126,2,,,,,,,,,,,session,2110.6306104999994,126.0,2.0,72.0,0.022974295462379526,5,1.0136760999994294,1.1632119999994757,7,0.6468706000014208,0.7969695000010688,1,0.22950540000056208,0.36391999999978,,,54.0,57.0,72597,60.0,
152,-152,45,7,15,127,10,,,,,,,,,,,session,2118.3611754999993,168.0,2.0,72.0,0.022974295462379526,4,0.8807309000003443,1.0483603000011499,7,0.4062475999999151,0.5729086999999708,1,0.7585678000014013,0.908593900001506,,,69.0,54.0,72597,60.0,
-152,-152,0,8,0,128,13,,,,,,,,,,,session,2127.192406700001,168.0,2.0,72.0,0.022974295462379526,2,2.747272399999929,2.898326700000325,0,0.011048299998947186,0.061422499999025604,0,0.011281799999778741,0.013216600000305334,,,48.0,69.0,72597,60.0,
152,152,90,8,1,129,3,,,,,,,,,,,session,2136.391375,126.0,2.0,72.0,0.022974295462379526,5,0.8753517999994074,1.008791399999609,6,0.37863580000157526,0.5614471000008052,1,0.280370700000276,0.4473515999998199,,,72.0,54.0,72597,60.0,
152,152,45,8,2,130,2,,,,,,,,,,,session,2144.0652094000006,126.0,2.0,72.0,0.022974295462379526,2,1.9480243999987579,2.0978816999995615,0,0.01159639999968931,0.013428700000076788,0,0.010986399998728302,0.012877199998911237,,,72.0,72.0,72597,60.0,
152,-152,0,8,3,131,9,,,,,,,,,,,session,2152.3078474999993,162.0,2.0,72.0,0.022974295462379526,4,0.6759669999992184,0.8426220000001194,7,0.7772946000004595,0.9264304999996966,6,0.06056619999981194,0.21212720000039553,,,57.0,72.0,72597,60.0,
-152,-152,45,8,4,132,14,,,,,,,,,,,session,2160.592618400001,144.0,2.0,72.0,0.022974295462379526,3,0.550253999999768,0.6999359999990702,7,0.6136841000006825,0.746782300000632,1,0.11254120000012335,0.21318740000060643,,,48.0,66.0,72597,60.0,
152,152,0,8,5,133,1,,,,,,,,,,,session,2167.9981321000005,132.0,2.0,72.0,0.022974295462379526,5,1.1342131000001245,1.317233200001283,0,0.36070659999859345,0.5939925999991829,1,0.8590832999998383,1.3078422999988106,,,54.0,51.0,72597,60.0,
-152,152,45,8,6,134,6,,,,,,,,,,,session,2177.1771139,132.0,2.0,72.0,0.022974295462379526,2,1.947410699998727,2.0974200000000565,0,1.232986200000596,1.3997305000011693,0,0.29538160000083735,0.4740197999999509,,,54.0,60.0,72597,60.0,
152,-152,-45,8,7,135,8,,,,,,,,,,,session,2186.7111775999992,168.0,2.0,72.0,0.022974295462379526,2,1.9047771000005014,2.054451500000141,0,0.011241599999266327,0.013136100000338047,0,0.010948499999358319,0.012833400000090478,,,57.0,54.0,72597,60.0,
-152,152,90,8,8,136,7,,,,,,,,,,,session,2194.9046107000004,168.0,2.0,72.0,0.022974295462379526,2,0.5099960000006831,0.6745711000003212,6,0.07739860000037879,0.22825080000075104,1,0.23793509999995877,0.3881411999991542,,,63.0,63.0,72597,60.0,
152,152,-45,8,9,137,0,,,,,,,,,,,session,2202.5576859000003,150.0,2.0,72.0,0.022974295462379526,2,2.1651776999988215,2.3320188999987295,0,0.011642299999948591,0.013515799999368028,0,0.011002700000972254,0.01287870000123803,,,60.0,69.0,72597,60.0,
-152,-152,-45,8,10,138,12,,,,,,,,,,,session,2211.0163595999993,150.0,2.0,72.0,0.022974295462379526,3,0.39179839999997057,0.5419253000000026,1,0.6943553000000975,0.9289484000000812,1,0.2605170000006183,0.39396510000005946,,,57.0,48.0,72597,60.0,
-152,152,0,8,11,139,5,,,,,,,,,,,session,2219.1063246999993,156.0,2.0,72.0,0.022974295462379526,3,3.1963557000017317,3.363918000000922,6,1.8800291999996261,2.0311125999996875,1,0.5188933000008547,0.7211406000005809,,,72.0,54.0,72597,60.0,
-152,152,0,8,11,139,5,,,materials/instructions\12_break.png,2231.3966931000004,2265.639946800001,0,34.09036300000116,34.24036359999991,0.018164600000091013,34.24698290000015,,,,,,,,,,,,,,,,,,,,72597,60.0,
-152,-152,90,8,12,140,15,,,,,,,,,,,session,2265.6539970999993,180.0,2.0,72.0,0.022974295462379526,2,1.6736906000005547,1.8386477999993076,0,0.39785529999971914,0.6146312000000762,0,0.595073999998931,0.7951462999990326,,,57.0,54.0,72597,60.0,
152,-152,45,8,13,141,10,,,,,,,,,,,session,2275.2132883999993,150.0,2.0,72.0,0.022974295462379526,4,0.7903036000006978,0.9570519000008062,7,1.004561099998682,1.183954399999493,1,0.15733080000063637,0.29374319999988074,,,72.0,63.0,72597,60.0,
152,-152,90,8,14,142,11,,,,,,,,,,,session,2283.8613723999997,150.0,2.0,72.0,0.022974295462379526,4,0.38790419999895676,0.5379545999985567,6,0.42901960000017425,0.5437865000003512,1,0.2611283000005642,0.3972306000014214,,,48.0,66.0,72597,60.0,
-152,152,-45,8,15,143,4,,,,,,,,,,,session,2291.2109384999994,162.0,2.0,72.0,0.022974295462379526,2,1.8807894000001397,2.0142061000005924,0,0.3159641999991436,0.46599330000026384,0,0.19839870000032533,0.34819710000010673,,,54.0,51.0,72597,60.0,
-152,-152,90,9,0,144,15,,,,,,,,,,,session,2299.9327920999995,168.0,2.0,72.0,0.022974295462379526,3,1.335597700001017,1.4886651000015263,1,3.7295517999991716,3.9109155000005558,1,0.34953219999988505,0.4820887000005314,,,66.0,57.0,72597,60.0,
152,152,90,9,1,145,3,,,,,,,,,,,session,2312.6919112000005,180.0,2.0,72.0,0.022974295462379526,2,2.280193500000678,2.462919499999771,0,0.3271508999987418,0.5276263999985531,0,0.29187459999957355,0.4585112000004301,,,66.0,63.0,72597,60.0,
152,-152,45,9,2,146,10,,,,,,,,,,,session,2322.7509968999993,180.0,2.0,72.0,0.022974295462379526,4,0.7043935000001511,0.8707703000000038,7,0.6634131999999227,0.8130748000003223,1,0.12045560000115074,0.23618090000127268,,,60.0,48.0,72597,60.0,
-152,152,-45,9,3,147,4,,,,,,,,,,,session,2331.5588197000006,150.0,2.0,72.0,0.022974295462379526,2,2.4794732999998814,2.6796437000011792,0,0.7326857999996719,0.8999172999992879,0,0.49668259999998554,0.6971778999995877,,,60.0,54.0,72597,60.0,
-152,152,45,9,4,148,6,,,,,,,,,,,session,2341.683458300001,162.0,2.0,72.0,0.022974295462379526,2,1.7449842000005447,1.8783609000001888,0,2.42895739999949,2.6779511000004277,0,0.7749199000008957,0.9917535000004136,,,63.0,69.0,72597,60.0,
-152,-152,-45,9,5,149,12,,,,,,,,,,,session,2353.678900600001,132.0,2.0,72.0,0.022974295462379526,2,2.49376250000023,2.6606031999999686,0,0.011201699999219272,0.01309410000067146,0,0.5571751999996195,0.6739475999984279,,,69.0,60.0,72597,60.0,
152,152,-45,9,6,150,0,,,,,,,,,,,session,2362.831186799999,126.0,2.0,72.0,0.022974295462379526,2,2.3179215000000113,2.4733384999999544,0,0.011532000000443077,0.013356400000702706,0,0.2870285999997577,0.4539294999995036,,,51.0,51.0,72597,60.0,
-152,-152,45,9,7,151,14,,,,,,,,,,,session,2371.0408027000003,144.0,2.0,72.0,0.022974295462379526,4,4.579184799998984,4.729291699999521,7,2.3307563999987906,2.480852099999538,1,0.4022213999996893,0.5682354000000487,,,66.0,48.0,72597,60.0,
152,152,45,9,8,152,2,,,,,,,,,,,session,2384.5808396,180.0,2.0,72.0,0.022974295462379526,4,1.0490754000002198,1.1992754000002606,7,0.5534860999996454,0.7320025000008172,1,1.8389631000009103,1.988723000000391,,,57.0,69.0,72597,60.0,
152,152,0,9,9,153,1,,,,,,,,,,,session,2395.0944671000007,174.0,2.0,72.0,0.022974295462379526,2,3.260922199999186,3.4288188999998965,0,0.4792833999999857,0.6293821999988722,0,0.010920500000793254,0.17514610000034736,,,66.0,57.0,72597,60.0,
152,-152,90,9,10,154,11,,,,,,,,,,,session,2405.7460619000003,174.0,2.0,72.0,0.022974295462379526,4,0.681813899998815,0.83195379999961,6,0.19441899999947054,0.31295110000064597,1,0.012004000000160886,0.15630400000009104,,,48.0,63.0,72597,60.0,
152,-152,-45,9,11,155,8,,,,,,,,,,,session,2413.2616289999996,150.0,2.0,72.0,0.022974295462379526,4,0.8766009999999369,1.0267151999996713,1,1.4050349000008282,1.586561600001005,1,0.29930110000168497,0.43375790000027337,,,48.0,54.0,72597,60.0,
-152,152,0,9,12,156,5,,,,,,,,,,,session,2422.3121631999993,162.0,2.0,72.0,0.022974295462379526,2,2.600838599999406,2.767888200000016,0,0.011077699999077595,0.012974599998415215,0,0.011038500000722706,0.012909099999887985,,,48.0,66.0,72597,60.0,
-152,-152,0,9,13,157,13,,,,,,,,,,,session,2431.1499684,126.0,2.0,72.0,0.022974295462379526,2,2.0605147999995097,2.3146899999992456,0,0.010948499999358319,0.012854099999458413,0,0.010936499998933868,0.012880999998742482,,,66.0,51.0,72597,60.0,
-152,152,90,9,14,158,7,,,,,,,,,,,session,2439.1121866999993,162.0,2.0,72.0,0.022974295462379526,2,4.032959099999061,4.199931099999958,0,0.24446329999955196,0.46102590000009513,0,0.6625340000009601,0.8794415000011213,,,57.0,60.0,72597,60.0,
152,-152,0,9,15,159,9,,,,,,,,,,,session,2450.765049299999,156.0,2.0,72.0,0.022974295462379526,4,2.417454899999939,2.6133733999995457,0,0.43014729999958945,0.5801922000009654,1,0.27794119999998657,0.4779927999989013,,,72.0,66.0,72597,60.0,
152,-152,0,9,15,159,9,,,materials/instructions\12_break.png,2460.8118052,2517.6620887,0,56.683234499998434,56.84909109999899,0.015493499999138294,56.856828199999654,,,,,,,,,,,,,,,,,,,,72597,60.0,
152,152,90,10,0,160,3,,,,,,,,,,,session,2517.6787023000006,174.0,2.0,72.0,0.022974295462379526,2,3.2947808999997505,3.4519466000001557,0,0.3304497999997693,0.46102029999929073,0,0.4795639999993,0.6283196999993379,,,63.0,63.0,72597,60.0,
-152,152,45,10,1,161,6,,,,,,,,,,,session,2528.6778611,138.0,2.0,72.0,0.022974295462379526,2,4.130095799999253,4.298610499999995,0,0.7429463000007672,0.9273057999998855,0,1.7955557000004774,2.028854700000011,,,63.0,51.0,72597,60.0,
-152,-152,0,10,2,162,13,,,,,,,,,,,session,2541.6176251999996,138.0,2.0,72.0,0.022974295462379526,2,3.6109427999999753,3.760826800000359,0,0.35516830000051414,0.43836580000061076,0,0.32499989999996615,0.4745898000001034,,,54.0,72.0,72597,60.0,
152,-152,90,10,3,163,11,,,,,,,,,,,session,2552.3271722,138.0,2.0,72.0,0.022974295462379526,5,1.1267432000004192,1.2598132000002806,0,2.9144789000001765,2.999743899999885,1,0.31369269999959215,0.4469469999985449,,,72.0,48.0,72597,60.0,
152,-152,45,10,4,164,10,,,,,,,,,,,session,2562.7990505999996,162.0,2.0,72.0,0.022974295462379526,4,0.6364826999997604,0.7920656999995117,7,0.7400132000002486,0.9063447000007727,6,0.16154499999902328,0.28192179999859945,,,57.0,66.0,72597,60.0,
152,-152,0,10,5,165,9,,,,,,,,,,,session,2571.0115281999997,174.0,2.0,72.0,0.022974295462379526,2,2.300260199999684,2.500297900000078,0,0.011062699999456527,0.01293449999866425,0,0.27712479999900097,0.4097392999992735,,,51.0,57.0,72597,60.0,
-152,-152,45,10,6,166,14,,,,,,,,,,,session,2580.0792979999997,144.0,2.0,72.0,0.022974295462379526,2,1.2442690999996557,1.394246399999247,7,1.1343844999992143,1.2668094000000565,1,0.43524079999951937,0.6170744999999442,,,66.0,48.0,72597,60.0,
-152,-152,90,10,7,167,15,,,,,,,,,,,session,2589.1063616,132.0,2.0,72.0,0.022974295462379526,2,3.9268427999995765,4.075588199999402,0,0.6769226000014896,0.8107279000014387,0,0.011074300000473158,0.1463925999996718,,,48.0,57.0,72597,60.0,
152,152,-45,10,8,168,0,,,,,,,,,,,session,2600.1288895000007,174.0,2.0,72.0,0.022974295462379526,5,1.1795695000000705,1.3130610999996861,1,0.2642667000000074,0.3990438000000722,1,0.2100692000003619,0.3600995000015246,,,51.0,66.0,72597,60.0,
-152,152,-45,10,9,169,4,,,,,,,,,,,session,2608.5006571000004,138.0,2.0,72.0,0.022974295462379526,2,1.4565230000007432,1.6564407999994728,0,0.26479460000155086,0.4110692000012932,0,0.5945702999997593,0.7801177000001189,,,48.0,60.0,72597,60.0,
152,152,45,10,10,170,2,,,,,,,,,,,session,2617.2487422999993,132.0,2.0,72.0,0.022974295462379526,2,1.0611895000001823,1.2128754000004847,0,1.0286909000005835,1.226798500001678,0,0.28202950000013516,0.43123039999954926,,,54.0,48.0,72597,60.0,
-152,152,0,10,11,171,5,,,,,,,,,,,session,2625.5009399,162.0,2.0,72.0,0.022974295462379526,2,3.5799010999999155,3.7134535999994114,0,2.0227310999998735,2.2024617999995826,0,0.49606739999944693,0.6960416999991139,,,60.0,54.0,72597,60.0,
-152,152,90,10,12,172,7,,,,,,,,,,,session,2638.177214099999,126.0,2.0,72.0,0.022974295462379526,5,2.375149600000441,2.5085553000008076,6,1.227235100001053,1.344089600001098,1,0.2817140000006475,0.465829599999779,,,66.0,57.0,72597,60.0,
-152,-152,-45,10,13,173,12,,,,,,,,,,,session,2648.0985114999994,138.0,2.0,72.0,0.022974295462379526,2,2.953827600000295,3.1064027000011265,0,0.012115300000004936,0.14116219999959867,0,0.5434248000001389,0.7393530000008468,,,72.0,60.0,72597,60.0,
152,-152,-45,10,14,174,8,,,,,,,,,,,session,2658.0264197999995,132.0,2.0,72.0,0.022974295462379526,2,2.680607799999052,2.847498999999516,0,0.01097259999914968,0.22578819999944244,0,0.29282400000010966,0.5096353999997518,,,48.0,69.0,72597,60.0,
152,152,0,10,15,175,1,,,,,,,,,,,session,2667.2290796999996,168.0,2.0,72.0,0.022974295462379526,2,2.630595099999482,2.830761799999891,0,0.010962000000290573,0.16193139999995765,0,0.5989279000004899,0.7893068000012136,,,51.0,63.0,72597,60.0,
-152,-152,0,11,0,176,13,,,,,,,,,,,session,2677.1640331999997,144.0,2.0,72.0,0.022974295462379526,3,0.5759362999997393,0.7423306000000593,0,0.29432749999978114,0.44430450000072597,0,0.011158999999679509,0.01326129999870318,,,72.0,69.0,72597,60.0,
-152,152,0,11,1,177,5,,,,,,,,,,,session,2685.1939857999996,144.0,2.0,72.0,0.022974295462379526,2,0.627628200001709,0.794375300001775,0,0.3301428000013402,0.4290500000006432,6,0.41205900000022666,0.4963028000001941,,,60.0,69.0,72597,60.0,
-152,152,-45,11,2,178,4,,,,,,,,,,,session,2692.916284600001,162.0,2.0,72.0,0.022974295462379526,2,0.48260449999906996,0.682677099999637,1,0.4330446000003576,0.6000162000000273,1,0.25907270000061544,0.4255381999992096,,,66.0,69.0,72597,60.0,
152,152,45,11,3,179,2,,,,,,,,,,,session,2701.030565100001,156.0,2.0,72.0,0.022974295462379526,2,0.8109645000004093,0.9443707999998878,7,0.8078111999984685,0.9920638999992661,1,0.15006369999900926,0.3670163999995566,,,51.0,66.0,72597,60.0,
152,152,45,11,3,179,2,,,materials/instructions\12_break.png,2709.5652775999997,2766.0859950999993,0,56.37726069999917,56.51888130000043,0.013920000001235167,56.53345040000022,,,,,,,,,,,,,,,,,,,,72597,60.0,
-152,-152,-45,11,4,180,12,,,,,,,,,,,session,2766.1092376999995,168.0,2.0,72.0,0.022974295462379526,2,2.0189585000007355,2.1860137000003306,0,0.3118905999999697,0.4956082000007882,0,0.4912872000004427,0.6245945999999094,,,66.0,60.0,72597,60.0,
152,152,-45,11,5,181,0,,,,,,,,,,,session,2776.2955862999997,150.0,2.0,72.0,0.022974295462379526,5,0.9308498000009422,1.064370300000519,1,1.028486699999121,1.1975939999992988,1,0.3614854000006744,0.5280999999995402,,,66.0,48.0,72597,60.0,
152,152,90,11,6,182,3,,,,,,,,,,,session,2784.9374245999998,144.0,2.0,72.0,0.022974295462379526,5,1.4624542000001384,1.5928234999992128,1,2.571937799999432,2.721972299999834,1,0.5445118000006914,0.7265956999999617,,,57.0,63.0,72597,60.0,
152,-152,45,11,7,183,10,,,,,,,,,,,session,2796.0975031000007,168.0,2.0,72.0,0.022974295462379526,4,0.6457351000008202,0.8292247999997926,7,0.8461591999985103,1.0129474999994272,6,0.3274418000000878,0.4608487999994395,,,48.0,51.0,72597,60.0,
-152,152,45,11,8,184,6,,,,,,,,,,,session,2804.3012668,144.0,2.0,72.0,0.022974295462379526,2,1.9624425999991217,2.1124243999984174,0,1.6420281999999133,1.7405810000000201,0,0.7419107999994594,0.944694799998615,,,69.0,60.0,72597,60.0,
152,-152,90,11,9,185,11,,,,,,,,,,,session,2815.1332709000008,132.0,2.0,72.0,0.022974295462379526,4,0.8078994999996212,1.0234719999989466,6,0.7096880999997666,0.8434760000000097,1,0.27686350000112725,0.4606080000012298,,,72.0,66.0,72597,60.0,
-152,152,90,11,10,186,7,,,,,,,,,,,session,2823.4323393999994,126.0,2.0,72.0,0.022974295462379526,2,0.6966815000014321,0.8467669000001479,6,0.9640604999985953,1.0977861999999732,1,0.39474710000104096,0.5638266000005387,,,69.0,63.0,72597,60.0,
-152,-152,90,11,11,187,15,,,,,,,,,,,session,2831.707910599999,156.0,2.0,72.0,0.022974295462379526,3,0.6589628999990964,0.82386889999907,6,0.2959690999996383,0.4286610999988625,1,0.17199890000119922,0.2709312000006321,,,72.0,66.0,72597,60.0,
152,-152,-45,11,12,188,8,,,,,,,,,,,session,2840.2645915000003,162.0,2.0,72.0,0.022974295462379526,4,0.7109593000004679,0.8953696999997192,1,1.5995294999993348,1.749369499999375,6,1.0841877000002569,1.2172342000012577,,,57.0,48.0,72597,60.0,
152,-152,0,11,13,189,9,,,,,,,,,,,session,2850.0200692000008,126.0,2.0,72.0,0.022974295462379526,4,0.3827558000011777,0.5503790000002482,0,0.5054302000007738,0.655579399999624,6,1.6267836000006355,1.7747667000003275,,,48.0,72.0,72597,60.0,
-152,-152,45,11,14,190,14,,,,,,,,,,,session,2858.5786333000005,132.0,2.0,72.0,0.022974295462379526,3,0.37273020000066026,0.4915830999998434,7,0.9655340000008437,1.1656683000001067,1,1.3171686999994563,1.4317649000004167,,,54.0,51.0,72597,60.0,
152,152,0,11,15,191,1,,,,,,,,,,,session,2867.0649144999998,150.0,2.0,72.0,0.022974295462379526,5,0.8045698999994784,0.9392987999999605,0,0.33529859999907785,0.4508542000003217,1,0.531050999999934,0.6817234000009194,,,60.0,63.0,72597,60.0,
-152,152,0,12,0,192,5,,,,,,,,,,,session,2875.1395991,174.0,2.0,72.0,0.022974295462379526,2,0.6022921000003407,0.7688309000004665,0,0.4456159999990632,0.6103803000005428,1,0.14600640000026033,0.3126958000011655,,,69.0,63.0,72597,60.0,
152,152,45,12,1,193,2,,,,,,,,,,,session,2884.1339134,180.0,2.0,72.0,0.022974295462379526,5,1.0072178000009444,1.1874972000005073,7,1.2268516000003729,1.3936969000005774,1,1.8679441000003862,2.034765399999742,,,57.0,66.0,72597,60.0,
-152,-152,-45,12,2,194,12,,,,,,,,,,,session,2895.273601600001,138.0,2.0,72.0,0.022974295462379526,3,0.11887260000003153,0.26903719999972964,1,1.1812509000010323,1.3776047999999719,1,1.0787725000009232,1.2298511000008148,,,57.0,57.0,72597,60.0,
152,-152,0,12,3,195,9,,,,,,,,,,,session,2904.0645894,156.0,2.0,72.0,0.022974295462379526,4,0.6376639999998588,0.873611200000596,7,2.1451167999985046,2.3118640999982745,1,0.26601099999970756,0.39857589999883203,,,69.0,48.0,72597,60.0,
152,152,-45,12,4,196,0,,,,,,,,,,,session,2913.6503734000007,126.0,2.0,72.0,0.022974295462379526,5,0.6145168000002741,0.7644476999994367,1,0.8277472999998281,0.9963238000000274,1,0.4956990999999107,0.6291553999999451,,,48.0,69.0,72597,60.0,
152,-152,90,12,5,197,11,,,,,,,,,,,session,2921.5494463000005,138.0,2.0,72.0,0.022974295462379526,4,0.27978780000012193,0.46305089999987104,6,0.3283917000007932,0.46311229999992065,6,0.7639600000002247,0.8952389000005496,,,51.0,60.0,72597,60.0,
152,152,0,12,6,198,1,,,,,,,,,,,session,2929.263320700001,168.0,2.0,72.0,0.022974295462379526,2,2.3801309000009496,2.5478855000001204,0,0.16203610000047775,0.32876539999961096,0,0.010913500000242493,0.14411150000159978,,,54.0,60.0,72597,60.0,
-152,152,45,12,7,199,6,,,,,,,,,,,session,2938.4357241999996,156.0,2.0,72.0,0.022974295462379526,2,1.4224118000001909,1.605638099999851,0,0.32509620000018913,0.5901880000001256,0,0.010671799998817733,0.17965189999995346,,,57.0,63.0,72597,60.0,
-152,152,45,12,7,199,6,,,materials/instructions\12_break.png,2946.8810652,2977.0133720999993,0,29.913401699999667,30.130316999999195,0.016974300000583753,30.138136600000507,,,,,,,,,,,,,,,,,,,,72597,60.0,
-152,-152,90,12,8,200,15,,,,,,,,,,,session,2977.0292077999993,150.0,2.0,72.0,0.022974295462379526,3,0.24054729999988922,0.44049730000006093,6,0.38097360000028857,0.5272949999998673,1,0.011234200001126737,0.09346800000093936,,,57.0,66.0,72597,60.0,
152,-152,-45,12,9,201,8,,,,,,,,,,,session,2984.1025003000004,168.0,2.0,72.0,0.022974295462379526,4,0.4375161999996635,0.6086336999997002,7,0.9097676000001229,1.0627340000010008,1,0.7789004000005662,0.9294165999999677,,,57.0,72.0,72597,60.0,
152,-152,45,12,10,202,10,,,,,,,,,,,session,2993.5639667999994,144.0,2.0,72.0,0.022974295462379526,4,1.0841264999999112,1.267058299999917,1,1.1588613000003534,1.3579601000001276,1,0.6277031000008719,0.8115355999998428,,,54.0,60.0,72597,60.0,
-152,-152,45,12,11,203,14,,,,,,,,,,,session,3002.7676875999996,162.0,2.0,72.0,0.022974295462379526,3,0.3300572000007378,0.44887870000093244,7,0.7247330999998667,0.9088990999989619,1,0.2768094999992172,0.38152099999933853,,,51.0,57.0,72597,60.0,
-152,-152,0,12,12,204,13,,,,,,,,,,,session,3010.4665395,138.0,2.0,72.0,0.022974295462379526,2,2.793067599999631,2.9096081999996386,0,1.6340746999994735,1.834625599998617,0,1.4120027000008122,1.5616416000011668,,,51.0,48.0,72597,60.0,
-152,152,-45,12,13,205,4,,,,,,,,,,,session,3022.383027499999,132.0,2.0,72.0,0.022974295462379526,2,0.34309290000055626,0.4779508999999962,1,0.47937389999970037,0.6477451999999175,1,0.26401049999913084,0.38171329999931913,,,48.0,54.0,72597,60.0,
152,152,90,12,14,206,3,,,,,,,,,,,session,3029.2396481000005,168.0,2.0,72.0,0.022974295462379526,5,0.6064018999986729,0.7865857999986474,6,0.36039830000117945,0.46033929999975953,1,0.43366559999958554,0.5504859999982727,,,72.0,60.0,72597,60.0,
-152,152,90,12,15,207,7,,,,,,,,,,,session,3038.0812402,168.0,2.0,72.0,0.022974295462379526,2,0.7266615999997157,0.8778992000006838,6,0.9464177999998356,1.0799715999983164,1,0.7103186999993341,0.8947987999999896,,,48.0,60.0,72597,60.0,
152,152,0,13,0,208,1,,,,,,,,,,,session,3046.985875900001,150.0,2.0,72.0,0.022974295462379526,5,1.3311580999998114,1.4978484000002936,7,0.8885200000004261,1.044243499998629,1,0.6895983000013075,0.8901112000003195,,,48.0,72.0,72597,60.0,
-152,152,0,13,1,209,5,,,,,,,,,,,session,3056.3805433999996,174.0,2.0,72.0,0.022974295462379526,2,1.3266308000002027,1.493368499999633,0,0.3143717999992077,0.4478135999997903,0,0.19751789999827452,0.36518249999971886,,,54.0,51.0,72597,60.0,
-152,-152,45,13,2,210,14,,,,,,,,,,,session,3064.7844658000004,156.0,2.0,72.0,0.022974295462379526,3,0.33087870000053954,0.4979512000008981,7,0.7617547999998351,0.9451165999998921,1,0.245174900001075,0.3947580000003654,,,51.0,66.0,72597,60.0,
152,152,90,13,3,211,3,,,,,,,,,,,session,3072.622745400001,144.0,2.0,72.0,0.022974295462379526,2,1.8755325000001903,2.0555328000009467,0,0.11059510000086448,0.2916863000009471,0,1.0983742999997048,1.2821449000002758,,,66.0,51.0,72597,60.0,
152,-152,0,13,4,212,9,,,,,,,,,,,session,3082.4853501999996,168.0,2.0,72.0,0.022974295462379526,2,1.144973000000391,1.262388799999826,0,0.14026749999902677,0.35714030000053754,0,0.27693449999969744,0.5104564000012033,,,48.0,60.0,72597,60.0,
152,-152,90,13,5,213,11,,,,,,,,,,,session,3090.6853481999997,180.0,2.0,72.0,0.022974295462379526,2,1.3136792999994213,1.5138846000008925,0,0.8813929999996617,1.053194000000076,0,0.5380347999998776,0.7545642999994016,,,54.0,63.0,72597,60.0,
-152,152,-45,13,6,214,4,,,,,,,,,,,session,3100.4138078999995,162.0,2.0,72.0,0.022974295462379526,2,0.8268564999998489,0.9940984999993816,1,1.9953960000002553,2.162220399999569,1,0.06285380000008445,0.19748640000034356,,,51.0,57.0,72597,60.0,
152,-152,45,13,7,215,10,,,,,,,,,,,session,3109.733438,138.0,2.0,72.0,0.022974295462379526,4,1.4625985999991826,1.5957873999996082,7,0.7166446000010183,0.8678118999996514,1,0.6821970000000874,0.8480648000004294,,,60.0,48.0,72597,60.0,
-152,-152,0,13,8,216,13,,,,,,,,,,,session,3118.5900751,150.0,2.0,72.0,0.022974295462379526,3,0.6899274999996123,0.8726492000005237,0,0.2966173000004346,0.4786961000008887,1,0.30831190000026254,0.4583165999993071,,,48.0,48.0,72597,60.0,
-152,-152,90,13,9,217,15,,,,,,,,,,,session,3126.4688748,150.0,2.0,72.0,0.022974295462379526,3,0.6122124000012263,0.8113496999994823,6,0.9492097000002104,1.0502973000002385,1,0.5303259999982401,0.7637703999989753,,,48.0,54.0,72597,60.0,
152,152,45,13,10,218,2,,,,,,,,,,,session,3134.7532041999993,168.0,2.0,72.0,0.022974295462379526,2,0.6378043000004254,0.8385899000004429,0,0.7896262000012939,0.995427000001655,0,0.4537655000003724,0.6078675000007934,,,69.0,69.0,72597,60.0,
152,152,-45,13,11,219,0,,,,,,,,,,,session,3143.7352067,174.0,2.0,72.0,0.022974295462379526,2,4.179173599999558,4.359595399999307,0,0.010847499999727006,0.012955000000147265,0,0.2305145000009361,0.39677730000039446,,,66.0,54.0,72597,60.0,
152,152,-45,13,11,219,0,,,materials/instructions\12_break.png,3154.9129858000006,3167.7631310999996,0,12.678326800001742,12.848154400000567,0.02262669999981881,12.855443500000547,,,,,,,,,,,,,,,,,,,,72597,60.0,
-152,-152,-45,13,12,220,12,,,,,,,,,,,session,3167.7792005,144.0,2.0,72.0,0.022974295462379526,2,1.5049753000002966,1.7383477999992465,0,0.3094858000004024,0.5255345000005036,0,0.23119680000127119,0.011157000000821427,,,66.0,54.0,72597,60.0,
152,-152,-45,13,13,221,8,,,,,,,,,,,session,3176.1377600000005,132.0,2.0,72.0,0.022974295462379526,5,1.7854322000002867,1.9358759000006103,0,0.8150097999987338,0.979066399999283,1,0.26407409999956144,0.4312415999993391,,,63.0,60.0,72597,60.0,
-152,152,90,13,14,222,7,,,,,,,,,,,session,3185.1774746,156.0,2.0,72.0,0.022974295462379526,2,0.12772299999960524,0.296509400001014,6,0.3148924999986775,0.48363900000003923,6,1.0610175000001618,1.2437755999999354,,,72.0,66.0,72597,60.0,
-152,152,45,13,15,223,6,,,,,,,,,,,session,3194.232190399999,132.0,2.0,72.0,0.022974295462379526,2,2.51689609999994,2.682004700000107,0,1.1468569999997271,1.363678900001105,0,0.548811000000569,0.7163940999998886,,,63.0,60.0,72597,60.0,
152,-152,45,14,0,224,10,,,,,,,,,,,session,3204.6909841999995,174.0,2.0,72.0,0.022974295462379526,2,1.6215683000009449,1.838379700000587,0,0.34257699999943725,0.558698099999674,0,2.1637111000000004,2.332379100000253,,,69.0,51.0,72597,60.0,
-152,152,90,14,1,225,7,,,,,,,,,,,session,3216.0697611999994,138.0,2.0,72.0,0.022974295462379526,2,3.897445599999628,4.03095409999878,0,2.579604800001107,2.7792557000011584,0,0.2964848000010534,0.4805876000009448,,,57.0,48.0,72597,60.0,
-152,-152,45,14,2,226,14,,,,,,,,,,,session,3228.8753743000007,156.0,2.0,72.0,0.022974295462379526,3,0.4733011999996961,0.6900273999999627,7,0.5756594000013138,0.7410811999998259,1,0.45629969999936293,0.6259546999990562,,,69.0,54.0,72597,60.0,
152,152,-45,14,3,227,0,,,,,,,,,,,session,3237.7024943999995,156.0,2.0,72.0,0.022974295462379526,2,2.368712900000901,2.583486900000935,0,0.42909990000043763,0.6143336999994062,0,0.6976516000013362,0.8478443000003608,,,60.0,66.0,72597,60.0,
-152,-152,90,14,4,228,15,,,,,,,,,,,session,3247.9073146,162.0,2.0,72.0,0.022974295462379526,2,1.0110867000003054,1.2276364999997895,0,0.12853309999991325,0.35731829999895126,0,0.39699059999838937,0.6105840000000171,,,57.0,48.0,72597,60.0,
-152,-152,-45,14,5,229,12,,,,,,,,,,,session,3256.0661881000005,144.0,2.0,72.0,0.022974295462379526,3,0.6884581000012986,0.8884625000009692,1,0.9126878999995824,1.0961138999991817,1,0.011039199998776894,0.012944899999638437,,,63.0,48.0,72597,60.0,
152,152,0,14,6,230,1,,,,,,,,,,,session,3263.7838495999995,144.0,2.0,72.0,0.022974295462379526,5,0.8638797999992676,1.0144777000004979,0,0.6479466000000684,0.7806574000005639,1,0.4922762000005605,0.674704600000041,,,60.0,66.0,72597,60.0,
152,-152,90,14,7,231,11,,,,,,,,,,,session,3272.206697299999,144.0,2.0,72.0,0.022974295462379526,4,1.6193448999983957,1.8057319999988977,6,0.2426316000000952,0.3920280999991519,6,0.29307060000064666,0.4093073000003642,,,72.0,63.0,72597,60.0,
-152,152,45,14,8,232,6,,,,,,,,,,,session,3281.4335593000005,174.0,2.0,72.0,0.022974295462379526,2,1.309638200000336,1.4283783999999287,0,0.4102225999995426,0.5603214000002481,0,0.8428991000000678,1.0262939000003826,,,54.0,60.0,72597,60.0,
-152,152,-45,14,9,233,4,,,,,,,,,,,session,3290.7057808,150.0,2.0,72.0,0.022974295462379526,2,2.1717430999997305,2.3498933000009856,0,0.7903611000001547,0.9445887000001676,0,0.2545329999993555,0.4077658000005613,,,48.0,66.0,72597,60.0,
152,152,45,14,10,234,2,,,,,,,,,,,session,3300.2867163,150.0,2.0,72.0,0.022974295462379526,2,1.1568119000003207,1.3099204000009195,0,0.8117342999994435,0.9785217000007833,0,0.2885738000004494,0.43898020000051474,,,63.0,57.0,72597,60.0,
-152,-152,0,14,11,235,13,,,,,,,,,,,session,3308.9681775,150.0,2.0,72.0,0.022974295462379526,4,1.3813619000011386,1.5296097000009468,1,0.49471839999932854,0.6781209999990097,1,0.26448270000037155,0.4959182000002329,,,48.0,57.0,72597,60.0,
152,-152,0,14,12,236,9,,,,,,,,,,,session,3317.374879,168.0,2.0,72.0,0.022974295462379526,2,1.1940677000002324,1.376436399999875,0,0.3267541000004712,0.5934876999999688,0,0.737114700001257,0.9705946000012773,,,51.0,54.0,72597,60.0,
152,152,90,14,13,237,3,,,,,,,,,,,session,3326.9856298000004,174.0,2.0,72.0,0.022974295462379526,2,1.4822774000003847,1.6823146999995515,0,0.3490784999994503,0.4994197999985772,0,0.2247709000002942,0.41240079999988666,,,69.0,54.0,72597,60.0,
152,-152,-45,14,14,238,8,,,,,,,,,,,session,3335.9604862999995,126.0,2.0,72.0,0.022974295462379526,4,0.546808000000965,0.6968666000011581,1,1.1737025999991602,1.3539662000002863,1,0.5613634000001184,0.7417556999989756,,,51.0,57.0,72597,60.0,
-152,152,0,14,15,239,5,,,,,,,,,,,session,3344.1166789999997,162.0,2.0,72.0,0.022974295462379526,2,1.107349300000351,1.290182000000641,0,0.39157389999854786,0.5252338999998756,0,0.6306292999997822,0.8135301000002073,,,51.0,72.0,72597,60.0,
-152,152,0,14,15,239,5,,,materials/instructions\12_break.png,3353.0002491999994,3382.7884920999995,0,29.652754600001572,29.786032800000612,0.019753500000661006,29.793856300000698,,,,,,,,,,,,,,,,,,,,72597,60.0,
-152,152,90,15,0,240,7,,,,,,,,,,,session,3382.8037933000005,162.0,2.0,72.0,0.022974295462379526,2,0.20101340000110213,0.3138611000013043,6,0.3420600999997987,0.4927834999998595,6,0.2393780999991577,0.38967480000064825,,,69.0,66.0,72597,60.0,
152,-152,-45,15,1,241,8,,,,,,,,,,,session,3391.0330244000006,162.0,2.0,72.0,0.022974295462379526,2,1.3284547999992355,1.4609604999986914,0,0.04319480000049225,0.21084300000075018,0,0.34785740000006626,0.46460409999963304,,,51.0,48.0,72597,60.0,
152,-152,45,15,2,242,10,,,,,,,,,,,session,3398.9717499999997,144.0,2.0,72.0,0.022974295462379526,4,0.6783761000006052,0.8786662000002252,7,0.46285879999959434,0.6296314999999595,1,1.449993899999754,1.60030370000095,,,48.0,54.0,72597,60.0,
152,152,45,15,3,243,2,,,,,,,,,,,session,3407.6310564000005,168.0,2.0,72.0,0.022974295462379526,5,1.095572500000344,1.2142997999999352,7,0.369269599999825,0.48660410000047705,1,0.6432297999999719,0.8277666000012687,,,66.0,57.0,72597,60.0,
152,152,0,15,4,244,1,,,,,,,,,,,session,3416.7861256000006,126.0,2.0,72.0,0.022974295462379526,2,1.3157859000002645,1.4655805000002147,0,0.011179199998878175,0.06189839999933611,0,0.011938100000406848,0.013806799999656505,,,57.0,69.0,72597,60.0,
152,152,-45,15,5,245,0,,,,,,,,,,,session,3423.976617200001,132.0,2.0,72.0,0.022974295462379526,2,1.5054015000005165,1.6721859999997832,7,0.9069942999994964,1.0774827999994159,1,0.46524629999839817,0.5597281999998813,,,63.0,69.0,72597,60.0,
-152,152,-45,15,6,246,4,,,,,,,,,,,session,3433.1322322000005,126.0,2.0,72.0,0.022974295462379526,2,0.6860066000008374,0.7860867000017606,1,0.37608560000080615,0.526724400000603,1,0.26130039999952714,0.3936669999984588,,,63.0,51.0,72597,60.0,
-152,-152,0,15,7,247,13,,,,,,,,,,,session,3440.3022274999994,174.0,2.0,72.0,0.022974295462379526,2,1.2263058999997156,1.377233299999716,7,0.29856109999855107,0.4809944999997242,1,0.029635899998538662,0.18212169999969774,,,48.0,66.0,72597,60.0,
-152,-152,45,15,8,248,14,,,,,,,,,,,session,3448.5928135999993,162.0,2.0,72.0,0.022974295462379526,3,0.46213969999917026,0.6622885999986465,7,0.49228930000026594,0.6790231000013591,1,2.131300699998974,2.2819251000000804,,,66.0,69.0,72597,60.0,
152,152,90,15,9,249,3,,,,,,,,,,,session,3459.1877022,174.0,2.0,72.0,0.022974295462379526,5,0.8217797000015707,0.9883006000000023,6,0.42945310000141035,0.5458418000016536,1,0.611311000000569,0.7946558000003279,,,57.0,60.0,72597,60.0,
152,-152,90,15,10,250,11,,,,,,,,,,,session,3467.8079869999992,168.0,2.0,72.0,0.022974295462379526,4,0.5526156000014453,0.7023124000006646,6,0.27305230000092706,0.4064030999998067,1,0.4618282999999792,0.6414969999987079,,,72.0,51.0,72597,60.0,
-152,-152,90,15,11,251,15,,,,,,,,,,,session,3475.8505271999993,156.0,2.0,72.0,0.022974295462379526,2,1.2885803999997734,1.3871201000001747,0,0.2602243000001181,0.46051880000050005,0,0.22912880000149016,0.41264330000012706,,,69.0,63.0,72597,60.0,
-152,-152,-45,15,12,252,12,,,,,,,,,,,session,3484.3689502000007,132.0,2.0,72.0,0.022974295462379526,2,1.101016199998412,1.2668223999990005,0,0.14467149999836693,0.2762855999990279,0,0.11209319999943546,0.32909079999990354,,,51.0,69.0,72597,60.0,
-152,152,0,15,13,253,5,,,,,,,,,,,session,3491.8925664000008,138.0,2.0,72.0,0.022974295462379526,2,0.9577191000007588,1.1363467999999557,0,0.011200099999769009,0.24231110000073386,0,0.01094349999948463,0.03859499999998661,,,60.0,63.0,72597,60.0,
152,-152,0,15,14,254,9,,,,,,,,,,,session,3499.311364800001,144.0,2.0,72.0,0.022974295462379526,4,0.6743808999999601,0.8742812999989837,7,0.2285676000010426,0.39641650000157824,1,0.38200940000024275,0.5171413000007306,,,63.0,48.0,72597,60.0,
-152,152,45,15,15,255,6,,,,,,,,,,,session,3506.8080657,168.0,2.0,72.0,0.022974295462379526,2,2.7674520000000484,2.9673774000002595,0,0.7609488000016427,0.9114896000010049,0,0.4541167999996105,0.6388244999998278,,,60.0,69.0,72597,60.0,
-152,-152,90,16,0,256,15,,,,,,,,,,,session,3517.769869500001,150.0,2.0,72.0,0.022974295462379526,3,0.08770519999961834,0.2717021999997087,6,0.010984000000462402,0.012980800000150339,1,0.010917000001427368,0.01289580000047863,,,72.0,60.0,72597,60.0,
-152,-152,-45,16,1,257,12,,,,,,,,,,,session,3524.7055119999995,132.0,2.0,72.0,0.022974295462379526,3,3.270730000000185,3.470966999999291,6,0.8487196999994921,0.9805484000007709,1,0.39746699999886914,0.5488549999990937,,,66.0,66.0,72597,60.0,
152,-152,90,16,2,258,11,,,,,,,,,,,session,3535.542647200001,138.0,2.0,72.0,0.022974295462379526,4,0.3031387999999424,0.44645670000136306,6,0.2989209999996092,0.438574099998732,1,0.25880730000062613,0.40877069999987725,,,54.0,57.0,72597,60.0,
152,-152,0,16,3,259,9,,,,,,,,,,,session,3542.4722618999995,126.0,2.0,72.0,0.022974295462379526,4,0.9583854000011343,1.1255058999995526,7,0.4296476999988954,0.5805977999989409,1,0.27431539999997767,0.42336599999907776,,,51.0,54.0,72597,60.0,
152,-152,0,16,3,259,9,,,materials/instructions\12_break.png,3549.9485981999997,3588.8001562,0,38.699457799999436,38.84956839999904,0.021769899998616893,38.857008799999676,,,,,,,,,,,,,,,,,,,,72597,60.0,
152,-152,-45,16,4,260,8,,,,,,,,,,,session,3588.8162433000007,150.0,2.0,72.0,0.022974295462379526,4,0.8058239000001777,0.9725891999987653,1,1.145748700000695,1.2792033000005176,1,0.9140406999995321,1.0478063999998994,,,66.0,69.0,72597,60.0,
-152,152,0,16,5,261,5,,,,,,,,,,,session,3598.3229404999993,132.0,2.0,72.0,0.022974295462379526,2,0.8629817999990337,0.9630378000001656,0,0.5265832999994018,0.6767053000003216,1,0.19975909999993746,0.32890729999962787,,,72.0,66.0,72597,60.0,
-152,152,45,16,6,262,6,,,,,,,,,,,session,3606.2767796,162.0,2.0,72.0,0.022974295462379526,2,0.10883319999993546,0.27553900000020803,7,0.44192280000061146,0.573765099999946,1,0.31177260000004026,0.44705770000109624,,,57.0,69.0,72597,60.0,
-152,-152,0,16,7,263,13,,,,,,,,,,,session,3614.2078902999992,162.0,2.0,72.0,0.022974295462379526,3,0.011026700000002165,0.12756030000127794,0,0.07773169999927632,0.2461659000000509,1,0.24719879999975092,0.3806437000002916,,,63.0,51.0,72597,60.0,
152,152,-45,16,8,264,0,,,,,,,,,,,session,3621.0065201999996,126.0,2.0,72.0,0.022974295462379526,5,0.3138536999995267,0.46390400000018417,1,1.0470308999992994,1.2138949000000139,1,0.2533644000013737,0.38823490000140737,,,51.0,66.0,72597,60.0,
152,152,90,16,9,265,3,,,,,,,,,,,session,3628.5850272,168.0,2.0,72.0,0.022974295462379526,5,0.7788489999984449,0.8954001999991306,6,0.24348079999981564,0.3771593000001303,1,0.011161599999468308,0.12723499999992782,,,63.0,66.0,72597,60.0,
152,-152,45,16,10,266,10,,,,,,,,,,,session,3636.7363348999997,180.0,2.0,72.0,0.022974295462379526,2,1.1839016000012634,1.334056600000622,0,0.022874799999044626,0.14238709999881394,0,0.39571299999988696,0.5124432000011439,,,66.0,63.0,72597,60.0,
-152,152,90,16,11,267,7,,,,,,,,,,,session,3645.3279386999993,132.0,2.0,72.0,0.022974295462379526,2,1.1255973999996058,1.310581199999433,0,0.3934606000002532,0.5727293999989342,0,0.6106975999991846,0.727850799999942,,,66.0,66.0,72597,60.0,
-152,152,-45,16,12,268,4,,,,,,,,,,,session,3653.8194209000003,144.0,2.0,72.0,0.022974295462379526,2,0.9399502999985998,1.0881020999986504,1,0.29546130000017,0.4483288999999786,1,0.2952122999995481,0.4611293999987538,,,60.0,57.0,72597,60.0,
152,152,0,16,13,269,1,,,,,,,,,,,session,3661.6211415000007,168.0,2.0,72.0,0.022974295462379526,5,1.514917399999831,1.6647761000003811,0,0.3120249000003241,0.46319000000039523,1,0.2415006999999605,0.3751312999993388,,,54.0,51.0,72597,60.0,
152,152,45,16,14,270,2,,,,,,,,,,,session,3670.1283895000006,162.0,2.0,72.0,0.022974295462379526,5,0.6072526999996626,0.7375931999995373,7,0.812292399999933,0.9458752999998978,1,0.5248267000006308,0.7417696000011347,,,51.0,60.0,72597,60.0,
-152,-152,45,16,15,271,14,,,,,,,,,,,session,3679.1532271000005,144.0,2.0,72.0,0.022974295462379526,2,1.5132083999997121,1.6799981999993179,0,0.8809643000004144,1.0800085999999283,0,0.7486840000001393,0.9655486999999994,,,66.0,48.0,72597,60.0,
152,152,90,17,0,272,3,,,,,,,,,,,session,3688.6260761000003,144.0,2.0,72.0,0.022974295462379526,5,0.3324271999990742,0.48257100000046194,6,0.011123700000098324,0.012936099999933504,1,0.011396600000807666,0.013298800000484334,,,54.0,72.0,72597,60.0,
152,-152,-45,17,1,273,8,,,,,,,,,,,session,3695.090645200001,126.0,2.0,72.0,0.022974295462379526,4,0.39210610000009183,0.5920848999994632,7,0.4231841999990138,0.5397285999988526,1,0.2142282000004343,0.3642104999998992,,,57.0,63.0,72597,60.0,
-152,-152,-45,17,2,274,12,,,,,,,,,,,session,3702.420874799999,162.0,2.0,72.0,0.022974295462379526,2,1.2122834999991028,1.3968875999999,0,0.0748994000005041,0.29322510000019975,0,0.011137000001326669,0.1646907000013016,,,48.0,72.0,72597,60.0,
-152,-152,45,17,3,275,14,,,,,,,,,,,session,3710.4427974,144.0,2.0,72.0,0.022974295462379526,2,0.9422465000006923,1.1252297999999428,0,0.3159868999991886,0.4712857999984408,0,0.0594954999996844,0.27395269999942684,,,63.0,57.0,72597,60.0,
152,-152,0,17,4,276,9,,,,,,,,,,,session,3718.1518721,150.0,2.0,72.0,0.022974295462379526,4,0.8810389999998733,1.097773400000733,7,0.9318505000010191,1.0631010000015522,1,0.19704860000092594,0.34668210000018007,,,60.0,57.0,72597,60.0,
-152,152,45,17,5,277,6,,,,,,,,,,,session,3726.6055301000006,162.0,2.0,72.0,0.022974295462379526,4,1.1804701000000932,1.3627497000015865,0,2.040034400000877,2.1733379000015702,1,1.3220256000004156,1.4534066000014718,,,51.0,69.0,72597,60.0,
-152,152,0,17,6,278,5,,,,,,,,,,,session,3737.727259800001,138.0,2.0,72.0,0.022974295462379526,2,1.4923460000009072,1.6600989000016853,0,0.35965050000049814,0.5765785000003234,0,0.01086349999968661,0.012757099999362254,,,63.0,72.0,72597,60.0,
-152,-152,0,17,7,279,13,,,,,,,,,,,session,3746.6238779999994,174.0,2.0,72.0,0.022974295462379526,3,0.46164560000033816,0.6284696000002441,0,0.26380069999868283,0.4639398999988771,6,0.01116329999968002,0.013010800001211464,,,57.0,72.0,72597,60.0,
-152,-152,0,17,7,279,13,,,materials/instructions\12_break.png,3754.2396421000003,3807.0182933999995,0,52.6061565,52.77693249999902,0.01999930000056338,52.784749600001305,,,,,,,,,,,,,,,,,,,,72597,60.0,
152,152,0,17,8,280,1,,,,,,,,,,,session,3807.0349034,156.0,2.0,72.0,0.022974295462379526,5,1.1688013999992108,1.33731970000008,6,2.508866100000887,2.6415514000000258,1,0.281239199999618,0.4133932000004279,,,57.0,51.0,72597,60.0,
152,152,-45,17,9,281,0,,,,,,,,,,,session,3817.2906206,144.0,2.0,72.0,0.022974295462379526,2,2.1311981999988348,2.3155335999999807,0,0.14784230000077514,0.314380900001197,0,0.010945100000753882,0.1269086000011157,,,69.0,66.0,72597,60.0,
152,152,45,17,10,282,2,,,,,,,,,,,session,3826.1825529000007,126.0,2.0,72.0,0.022974295462379526,5,0.7492615999999543,0.903296099999352,7,1.0295411000006425,1.2300163999989309,1,0.8256865000003017,1.0092561000001297,,,51.0,54.0,72597,60.0,
152,-152,90,17,11,283,11,,,,,,,,,,,session,3835.2379061,168.0,2.0,72.0,0.022974295462379526,4,0.6475580000005721,0.8292863999995461,7,1.1791463999998086,1.314165600000706,1,0.6287468999998964,0.8288579000000027,,,60.0,66.0,72597,60.0,
-152,152,-45,17,12,284,4,,,,,,,,,,,session,3844.5604410000005,132.0,2.0,72.0,0.022974295462379526,2,3.6229542000000947,3.772925100000066,0,0.712934099999984,0.8796791999993729,0,0.39289670000107435,0.5595900000007532,,,60.0,57.0,72597,60.0,
-152,-152,90,17,13,285,15,,,,,,,,,,,session,3855.3705858000003,150.0,2.0,72.0,0.022974295462379526,2,1.7127940999998827,1.8813460000001214,0,0.010850499998923624,0.012803300000086892,0,0.2943649999997433,0.4627438000006805,,,66.0,66.0,72597,60.0,
-152,152,90,17,14,286,7,,,,,,,,,,,session,3863.8784227000006,150.0,2.0,72.0,0.022974295462379526,2,0.9659709999996267,1.0639403000004677,0,0.031233799998517497,0.28249509999841393,0,0.17939020000085293,0.3290988999997353,,,57.0,54.0,72597,60.0,
152,-152,45,17,15,287,10,,,,,,,,,,,session,3871.3574889,174.0,2.0,72.0,0.022974295462379526,2,1.1945830000004207,1.447122900000977,0,0.01188180000099237,0.0562091000010696,0,0.012047000000166008,0.013956799999505165,,,69.0,69.0,72597,60.0,
152,152,0,18,0,288,1,,,,,,,,,,,session,3879.9577495000003,144.0,2.0,72.0,0.022974295462379526,2,1.0012394999994285,1.1513865999986592,0,0.011159599998791236,0.03061399999933201,0,0.5327993000009883,0.6472211000000243,,,66.0,48.0,72597,60.0,
152,152,-45,18,1,289,0,,,,,,,,,,,session,3887.5267532999997,180.0,2.0,72.0,0.022974295462379526,2,1.0146899999999732,1.1981837000002997,0,0.011464100000011967,0.059264299999995274,0,0.18752330000097572,0.38752390000081505,,,63.0,57.0,72597,60.0,
-152,-152,90,18,2,290,15,,,,,,,,,,,session,3895.6420178,144.0,2.0,72.0,0.022974295462379526,2,1.106390700000702,1.2713222000002133,0,1.04447269999946,1.2446800999987317,0,0.21387120000144932,0.3312749000015174,,,51.0,51.0,72597,60.0,
-152,152,45,18,3,291,6,,,,,,,,,,,session,3904.0737519000004,132.0,2.0,72.0,0.022974295462379526,2,0.8833706000004895,1.0670828000002075,0,0.011358100000506965,0.013317299999471288,0,0.011558799998965696,0.013451499999064254,,,63.0,63.0,72597,60.0,
152,-152,90,18,4,292,11,,,,,,,,,,,session,3910.920230500001,144.0,2.0,72.0,0.022974295462379526,2,0.7125816999996459,0.8699501999999484,0,0.19463960000030056,0.4395421000008355,0,0.5466630999999325,0.7270117000007303,,,72.0,57.0,72597,60.0,
-152,152,0,18,5,293,5,,,,,,,,,,,session,3918.9717549999996,180.0,2.0,72.0,0.022974295462379526,2,3.3980714000008447,3.5648577000010846,0,0.010989700000209268,0.12645549999979266,0,0.4960739999987709,0.6469172999986768,,,69.0,51.0,72597,60.0,
152,-152,45,18,6,294,10,,,,,,,,,,,session,3929.7774204999996,168.0,2.0,72.0,0.022974295462379526,2,1.5127420999997412,1.6962705000005371,0,0.011146799999551149,0.013000400000237278,0,0.010981099998389254,0.058596399998350535,,,57.0,54.0,72597,60.0,
-152,-152,0,18,7,295,13,,,,,,,,,,,session,3937.7132833000005,126.0,2.0,72.0,0.022974295462379526,2,0.9907442999992782,1.1571979000000283,0,0.010921700000835699,0.012676100001044688,0,0.24148650000097405,0.47301770000012766,,,66.0,48.0,72597,60.0,
-152,152,-45,18,8,296,4,,,,,,,,,,,session,3945.2079593999997,162.0,2.0,72.0,0.022974295462379526,2,0.7241306000014447,0.8740323000001808,1,0.39735949999885634,0.562921799999458,1,0.10359950000020035,0.3204915999995137,,,51.0,66.0,72597,60.0,
152,-152,-45,18,9,297,8,,,,,,,,,,,session,3953.063189900001,132.0,2.0,72.0,0.022974295462379526,2,0.8616631999993842,1.0450746999995317,0,0.011105899999165558,0.048935400000118534,0,0.011093700000856188,0.01300000000082946,,,72.0,69.0,72597,60.0,
-152,-152,45,18,10,298,14,,,,,,,,,,,session,3960.1697166000004,132.0,2.0,72.0,0.022974295462379526,3,0.30016620000060357,0.4659424000001309,7,0.40563060000022233,0.5724367999991955,6,0.7965814999988652,0.9466019999999844,,,63.0,72.0,72597,60.0,
-152,152,90,18,11,299,7,,,,,,,,,,,session,3968.3917348000004,150.0,2.0,72.0,0.022974295462379526,2,1.2308486000001722,1.4290911000007327,0,0.2762565999983053,0.47622209999826737,0,0.2819633999988582,0.4649800999995932,,,69.0,48.0,72597,60.0,
-152,152,90,18,11,299,7,,,materials/instructions\12_break.png,3976.6912034999996,4044.9645821000004,0,68.13538020000124,68.27118520000113,0.021411699999589473,68.27647650000108,,,,,,,,,,,,,,,,,,,,72597,60.0,
152,152,45,18,12,300,2,,,,,,,,,,,session,4044.9779898000006,156.0,2.0,72.0,0.022974295462379526,2,1.5168843999999808,1.6509894000009808,0,0.6459851999989041,0.7960074999991775,0,0.24258319999898958,0.39256919999934325,,,48.0,57.0,72597,60.0,
-152,-152,-45,18,13,301,12,,,,,,,,,,,session,4054.1223578,126.0,2.0,72.0,0.022974295462379526,2,1.1670702999999776,1.3170888999993622,0,0.010986499999489752,0.062254700000266894,0,0.011174900000696653,0.043217600001298706,,,57.0,60.0,72597,60.0,
152,-152,0,18,14,302,9,,,,,,,,,,,session,4061.0565412999995,168.0,2.0,72.0,0.022974295462379526,2,1.0119610999990982,1.1798252999997203,0,0.01089999999931024,0.012804299998606439,0,0.010857699999178294,0.024847099999533384,,,69.0,63.0,72597,60.0,
152,152,90,18,15,303,3,,,,,,,,,,,session,4068.7456228,144.0,2.0,72.0,0.022974295462379526,2,1.1386552999993,1.322153299999627,6,0.7197660999991058,0.9028990999995585,1,0.3557885999998689,0.4880436000003101,,,57.0,48.0,72597,60.0,
-152,152,45,19,0,304,6,,,,,,,,,,,session,4077.6933517000007,144.0,2.0,72.0,0.022974295462379526,2,0.9624304999997548,1.1125556999995752,0,0.011164999999891734,0.06792359999963082,0,0.1136385000008886,0.2975901999998314,,,57.0,48.0,72597,60.0,
152,-152,-45,19,1,305,8,,,,,,,,,,,session,4084.7782868999993,138.0,2.0,72.0,0.022974295462379526,4,1.3116310000004887,1.4787049000005936,1,1.5489231000010477,1.682443300000159,1,1.5735181999989436,1.7401513999993767,,,69.0,54.0,72597,60.0,
152,-152,0,19,2,306,9,,,,,,,,,,,session,4095.5101293,132.0,2.0,72.0,0.022974295462379526,2,1.2008013000013307,1.3346048000003066,0,0.011155300000609714,0.1476211000008334,0,0.27598159999979543,0.47490640000069106,,,57.0,60.0,72597,60.0,
152,-152,45,19,3,307,10,,,,,,,,,,,session,4103.0740015,156.0,2.0,72.0,0.022974295462379526,2,1.3244813999990583,1.3923420999999507,0,0.010872099999687634,0.12733099999968545,0,0.012010500000542379,0.013908500000979984,,,66.0,63.0,72597,60.0,
152,152,90,19,4,308,3,,,,,,,,,,,session,4110.8151355,144.0,2.0,72.0,0.022974295462379526,2,1.488058999999339,1.6422629999997298,0,0.9584004999996978,1.061109199999919,0,0.9580506999991485,1.1250888999984454,,,54.0,66.0,72597,60.0,
-152,152,90,19,5,309,7,,,,,,,,,,,session,4120.7762348999995,144.0,2.0,72.0,0.022974295462379526,2,1.1116240999999718,1.2452671999999438,0,0.011132999999972526,0.16358720000062021,0,0.010895900000832626,0.057407800000873976,,,72.0,63.0,72597,60.0,
152,152,0,19,6,310,1,,,,,,,,,,,session,4128.358568299999,168.0,2.0,72.0,0.022974295462379526,2,0.346422699998584,0.5301360999983444,0,0.17636929999935091,0.37632569999914267,0,0.39366030000019236,0.5607204999996611,,,54.0,60.0,72597,60.0,
152,152,-45,19,7,311,0,,,,,,,,,,,session,4136.0267656000005,144.0,2.0,72.0,0.022974295462379526,5,0.7066567000001669,0.873377599999003,1,0.3726263000007748,0.5559033999998064,0,0.6522443000012572,0.8024466000006214,,,69.0,54.0,72597,60.0,
-152,152,-45,19,8,312,4,,,,,,,,,,,session,4144.7074337,162.0,2.0,72.0,0.022974295462379526,2,2.4108992999990733,2.577728500000376,0,1.1945830999993632,1.3969617000002472,0,0.25687010000001465,0.4737339000002976,,,69.0,54.0,72597,60.0,
-152,-152,-45,19,9,313,12,,,,,,,,,,,session,4155.3645102,138.0,2.0,72.0,0.022974295462379526,2,1.8019327000001795,2.018424199999572,0,0.011525800000526942,0.013434600001346553,0,0.01139100000000326,0.17604199999914272,,,54.0,60.0,72597,60.0,
-152,-152,45,19,10,314,14,,,,,,,,,,,session,4163.6232644,180.0,2.0,72.0,0.022974295462379526,3,0.561411799999405,0.7282478999986779,7,0.4766371000005165,0.5932695999999851,1,0.18173699999897508,0.3646281999990606,,,51.0,66.0,72597,60.0,
-152,-152,0,19,11,315,13,,,,,,,,,,,session,4171.711415500001,174.0,2.0,72.0,0.022974295462379526,3,1.0962355000010575,1.3113231000006635,0,0.09211789999972098,0.25926520000029996,1,0.010975400000461377,0.14387410000017553,,,63.0,57.0,72597,60.0,
152,-152,90,19,12,316,11,,,,,,,,,,,session,4179.7841836,126.0,2.0,72.0,0.022974295462379526,4,0.6062371999996685,0.7872735999990255,6,0.17782289999922796,0.29594059999908495,1,1.1782179000001634,1.37912519999918,,,69.0,69.0,72597,60.0,
152,152,45,19,13,317,2,,,,,,,,,,,session,4188.7441152,168.0,2.0,72.0,0.022974295462379526,5,0.9286379999994097,1.1127601999996841,6,0.2334381000000576,0.383504699999321,1,0.1623485999989498,0.31252649999987625,,,60.0,69.0,72597,60.0,
-152,152,0,19,14,318,5,,,,,,,,,,,session,4196.947283,150.0,2.0,72.0,0.022974295462379526,2,1.6993664000001445,1.9171218999999837,0,0.011065999999118503,0.032710299999962444,0,0.01092869999956747,0.01286189999882481,,,54.0,60.0,72597,60.0,
-152,-152,90,19,15,319,15,,,,,,,,,,,session,4204.7560650000005,162.0,2.0,72.0,0.022974295462379526,3,0.03251459999955841,0.20093079999969632,6,0.010985699998855125,0.012822899998354842,1,0.010878400000365218,0.1260879000001296,,,51.0,57.0,72597,60.0,
-152,-152,90,19,15,319,15,,,materials/instructions\12_break.png,4211.086833300001,4239.4593404,0,28.27084560000003,28.37035509999987,0.022112700000434415,28.378050400000575,,,,,,,,,,,,,,,,,,,,72597,60.0,
-152,-152,45,20,0,320,14,,,,,,,,,,,session,4239.4746391,156.0,2.0,72.0,0.022974295462379526,2,1.1259012999998959,1.2936921999989863,0,1.0448544999999285,1.1446574999990844,0,1.1076448000003438,1.287305900001229,,,60.0,57.0,72597,60.0,
152,152,45,20,1,321,2,,,,,,,,,,,session,4249.2407068,156.0,2.0,72.0,0.022974295462379526,2,0.9756237999990844,1.092370700000174,0,0.026578599999993457,0.2243274999982532,0,0.4800302000003285,0.6446990999993432,,,69.0,54.0,72597,60.0,
-152,152,45,20,2,322,6,,,,,,,,,,,session,4257.3266285,132.0,2.0,72.0,0.022974295462379526,2,1.129479100000026,1.2485868000003393,0,0.3286266000013711,0.5089249000011478,0,0.8087395000002289,1.025483700001132,,,57.0,69.0,72597,60.0,
-152,-152,0,20,3,323,13,,,,,,,,,,,session,4265.882138399999,162.0,2.0,72.0,0.022974295462379526,3,0.1954955000001064,0.3954542000010406,0,0.37935880000077304,0.4625089000001026,1,0.47888330000023416,0.6789625000001251,,,69.0,69.0,72597,60.0,
152,152,-45,20,4,324,0,,,,,,,,,,,session,4274.342178899999,126.0,2.0,72.0,0.022974295462379526,2,1.0125752999992983,1.2304676000003383,0,0.011099500001364504,0.012962700000571203,0,0.011026199999832897,0.012897399999928894,,,72.0,51.0,72597,60.0,
152,152,90,20,5,325,3,,,,,,,,,,,session,4281.2138258,174.0,2.0,72.0,0.022974295462379526,2,0.9106780999991315,1.0806867999999668,0,0.2811402999996062,0.44602409999970405,0,0.5773881000004621,0.7773285000002943,,,72.0,57.0,72597,60.0,
152,-152,90,20,6,326,11,,,,,,,,,,,session,4290.0170876,150.0,2.0,72.0,0.022974295462379526,4,1.0844128999997338,1.2518278999996255,6,0.25523729999986244,0.3895855999999185,1,0.010982300000250689,0.03421689999959199,,,48.0,69.0,72597,60.0,
152,-152,45,20,7,327,10,,,,,,,,,,,session,4298.139110900001,132.0,2.0,72.0,0.022974295462379526,2,1.0999848999999813,1.2500706000009814,0,0.010957099999359343,0.1602465999985725,0,0.042523599999185535,0.2109151999993628,,,48.0,69.0,72597,60.0,
-152,152,0,20,8,328,5,,,,,,,,,,,session,4305.362271499999,126.0,2.0,72.0,0.022974295462379526,2,0.8950546000014583,1.0450586000006297,0,0.011641999999483232,0.013532799999666167,0,0.12628740000036487,0.3269118999996863,,,69.0,57.0,72597,60.0,
-152,152,90,20,9,329,7,,,,,,,,,,,session,4312.4018606,180.0,2.0,72.0,0.022974295462379526,2,1.1239505999983521,1.3071469999995315,0,0.956202100000155,1.1721164999999019,0,1.1954762999994273,1.3597355999991123,,,72.0,72.0,72597,60.0,
152,152,0,20,10,330,1,,,,,,,,,,,session,4323.642265400001,162.0,2.0,72.0,0.022974295462379526,2,1.4829759000003833,1.63307739999982,0,0.010869800000364194,0.012729500000205007,0,0.7596028999996634,0.9600166999989597,,,57.0,57.0,72597,60.0,
-152,-152,90,20,11,331,15,,,,,,,,,,,session,4332.299514900001,162.0,2.0,72.0,0.022974295462379526,2,0.9657372000001487,1.1516363999999157,0,0.3421531000003597,0.506782700000258,0,0.4613556000003882,0.6282508000003872,,,48.0,60.0,72597,60.0,
152,-152,-45,20,12,332,8,,,,,,,,,,,session,4340.8581771,156.0,2.0,72.0,0.022974295462379526,2,0.9536172999996779,1.1211739999998827,0,0.4289204000015161,0.6121993000015209,0,0.8470070999992458,1.0137032999991789,,,66.0,51.0,72597,60.0,
-152,-152,-45,20,13,333,12,,,,,,,,,,,session,4349.580618700001,174.0,2.0,72.0,0.022974295462379526,2,0.8156408999984706,0.8987129999986792,0,0.011163099999976112,0.013114800000039395,0,0.011337300000377581,0.013242400000308407,,,54.0,72.0,72597,60.0,
-152,152,-45,20,14,334,4,,,,,,,,,,,session,4357.029661199999,174.0,2.0,72.0,0.022974295462379526,2,0.9725352000004932,1.1390121999993426,1,0.7443050000001676,0.926470899999913,1,0.012058100001013372,0.0956850000002305,,,57.0,69.0,72597,60.0,
152,-152,0,20,15,335,9,,,,,,,,,,,session,4366.0753515999995,168.0,2.0,72.0,0.022974295462379526,2,0.9129860000011831,1.0629442000008567,0,0.42727279999962775,0.6107140999993135,0,0.47755660000075295,0.6601365999995323,,,69.0,66.0,72597,60.0,
