x,y,orientation,.thisRepN,.thisTrialN,.thisN,.thisIndex,.stepSize,.intensity,image_name,global_start_time,global_end_time,pressKey,pressRT,releaseRT,image_started,image_ended,name,globalTime,fixation_dur,stimulation_dur,post_fixation,opacity,locationResponse_pressKey,locationResponse_pressRT,locationResponse_releaseRT,orientationResponse_pressKey,orientationResponse_pressRT,orientationResponse_releaseRT,pasResponse_pressKey,pasResponse_pressRT,pasResponse_releaseRT,.response,finalOpacity,postLoc,postOri,ID,frameRate,
,,,0,-1,-1,0,0.0969100130080564,None,materials/instructions\1_welcome.png,4.436695699987467,50.89153050002642,0,46.26930510002421,46.452806400018744,0.07827329996507615,46.454642299970146,,,,,,,,,,,,,,,,,,,,72607,60.0,
,,,0,-1,-1,0,0.0969100130080564,None,materials/instructions\2_instruction.png,50.960462899995036,76.8433129999903,0,25.597277100023348,25.88073400000576,0.017545399954542518,25.888987299986184,,,,,,,,,,,,,,,,,,,,72607,60.0,
,,,0,-1,-1,0,0.0969100130080564,None,materials/instructions\3_location_demo.png,76.90721859998303,86.39261229999829,0,9.332136799988803,9.483165999990888,0.023740699980407953,9.49005640001269,,,,,,,,,,,,,,,,,,,,72607,60.0,
,,,0,-1,-1,0,0.0969100130080564,None,materials/instructions\4_orientation_demo.png,86.4547397000133,98.81101140001556,0,12.203934799996205,12.354132500011474,0.016780000005383044,12.36201440001605,,,,,,,,,,,,,,,,,,,,72607,60.0,
,,,0,-1,-1,0,0.0969100130080564,None,materials/instructions\5_pas_demo.png,98.87375219998648,113.49141000001691,0,14.449192800035235,14.61565440002596,0.024015799979679286,14.623560599982738,,,,,,,,,,,,,,,,,,,,72607,60.0,
77,77,90,0,-1,-1,0,0.0969100130080564,None,,,,,,,,,session,113.51093729998684,174.0,2.0,72.0,0.1,5,3.7960490000550635,3.9796534000197425,1,2.352256699989084,2.535535999981221,1,2.6394167999969795,2.8250204999931157,,,,,72607,60.0,
-77,77,-45,0,-1,-1,0,0.0969100130080564,None,,,,,,,,,session,127.15389239997603,138.0,2.0,72.0,0.1,2,1.071845399972517,1.2387151999864727,7,1.8342366999713704,2.0198258999735117,1,1.8402562999981456,2.0235569000360556,,,,,72607,60.0,
77,77,45,0,-1,-1,0,0.0969100130080564,None,,,,,,,,,session,136.5769641000079,156.0,2.0,72.0,0.1,5,1.19315770000685,1.3585708999889903,7,1.5114469000254758,1.6781756000127643,6,2.7016757000237703,2.8349354999954812,,,,,72607,60.0,
77,77,0,0,-1,-1,0,0.0969100130080564,None,,,,,,,,,session,146.4327220999985,168.0,2.0,72.0,0.1,5,0.6263026000233367,0.7767421000171453,0,0.6190359000465833,0.7858282999950461,6,1.6307764999801293,1.7807596999919042,,,,,72607,60.0,
77,77,-45,0,-1,-1,0,0.0969100130080564,None,,,,,,,,,session,153.97977919998812,174.0,2.0,72.0,0.1,5,0.9799673999659717,1.1469028999563307,1,1.3697799000074156,1.550760200014338,6,1.1376435999991372,1.2878136000363156,,,,,72607,60.0,
,,,0,-1,-1,0,0.0969100130080564,None,materials/instructions\10_staircase_start.png,162.3031160000246,176.54181630001403,0,14.065998100035358,14.23686910001561,0.010075900005176663,14.244461600028444,,,,,,,,,,,,,,,,,,,,72607,60.0,
,,,0,0,-1,0,0.0969100130080564,0.1,,,,,,,,,staircase,176.55677889997605,150.0,2.0,72.0,0.1,,,,7,1.117603400023654,1.2677843000274152,,,,1,,,,72607,60.0,
,,,0,1,-1,0,0.0969100130080564,0.08,,,,,,,,,staircase,181.64587539999047,156.0,2.0,72.0,0.08,,,,0,0.6421868000179529,0.7761383000179194,,,,1,,,,72607,60.0,
,,,0,2,-1,0,0.0969100130080564,0.064,,,,,,,,,staircase,186.3293603999773,126.0,2.0,72.0,0.064,,,,6,0.33146600000327453,0.4482801000121981,,,,1,,,,72607,60.0,
,,,0,3,-1,0,0.0969100130080564,0.0512,,,,,,,,,staircase,190.18366650003009,138.0,2.0,72.0,0.0512,,,,7,0.6240347000421025,0.7575205999892205,,,,1,,,,72607,60.0,
,,,0,4,-1,0,0.0969100130080564,0.04096,,,,,,,,,staircase,194.55108160001691,126.0,2.0,72.0,0.04096,,,,7,0.29648509999969974,0.42963730002520606,,,,1,,,,72607,60.0,
,,,0,5,-1,0,0.0969100130080564,0.032768000000000005,,,,,,,,,staircase,198.95732779998798,180.0,2.0,72.0,0.032768000000000005,,,,6,0.6758659000042826,0.8248614000040106,,,,1,,,,72607,60.0,
,,,0,6,-1,0,0.0969100130080564,0.026214400000000006,,,,,,,,,staircase,204.09330250002677,168.0,2.0,72.0,0.026214400000000006,,,,6,0.5596157999825664,0.6932633999967948,,,,1,,,,72607,60.0,
,,,0,7,-1,0,0.0969100130080564,0.020971520000000004,,,,,,,,,staircase,208.91254940000363,180.0,2.0,72.0,0.020971520000000004,,,,0,0.798602299997583,0.9822981999604963,,,,1,,,,72607,60.0,
,,,0,8,-1,0,0.0969100130080564,0.016777216000000005,,,,,,,,,staircase,214.200983799994,144.0,2.0,72.0,0.016777216000000005,,,,7,1.0057688999804668,1.1557686000014655,,,,1,,,,72607,60.0,
,,,0,9,-1,0,0.0969100130080564,0.013421772800000004,,,,,,,,,staircase,219.16107989999,168.0,2.0,72.0,0.013421772800000004,,,,1,1.714842400047928,1.8828842000220902,,,,0,,,,72607,60.0,
,,,0,10,-1,0,0.0969100130080564,0.016777216000000005,,,,,,,,,staircase,225.47877619997598,168.0,2.0,72.0,0.016777216000000005,,,,0,0.8752090999623761,1.0584279999602586,,,,1,,,,72607,60.0,
,,,0,11,-1,0,0.0969100130080564,0.016777216000000005,,,,,,,,,staircase,230.64465450000716,156.0,2.0,72.0,0.016777216000000005,,,,0,0.0109091000049375,0.012995700002647936,,,,0,,,,72607,60.0,
,,,0,12,-1,0,0.0969100130080564,0.020971520000000007,,,,,,,,,staircase,234.5685718000168,156.0,2.0,72.0,0.020971520000000007,,,,1,2.8534215000108816,2.9851379999890924,,,,0,,,,72607,60.0,
,,,0,13,-1,0,0.0969100130080564,0.02621440000000001,,,,,,,,,staircase,241.45675770001253,132.0,2.0,72.0,0.02621440000000001,,,,7,1.0553908000001684,1.222062700020615,,,,1,,,,72607,60.0,
,,,0,14,-1,0,0.0969100130080564,0.02621440000000001,,,,,,,,,staircase,246.45957290002843,174.0,2.0,72.0,0.02621440000000001,,,,0,0.5939842999796383,0.7615587000036612,,,,1,,,,72607,60.0,
,,,0,15,-1,0,0.0969100130080564,0.020971520000000007,,,,,,,,,staircase,251.4453398999758,156.0,2.0,72.0,0.020971520000000007,,,,6,2.0800935000297613,2.1970688000437804,,,,0,,,,72607,60.0,
,,,0,16,-1,0,0.0969100130080564,0.02621440000000001,,,,,,,,,staircase,257.54934600001434,174.0,2.0,72.0,0.02621440000000001,,,,7,0.6541290999739431,0.7875122000114061,,,,1,,,,72607,60.0,
,,,0,17,-1,0,0.0969100130080564,0.02621440000000001,,,,,,,,,staircase,262.54504390002694,156.0,2.0,72.0,0.02621440000000001,,,,6,0.42663669999456033,0.5440012000035495,,,,1,,,,72607,60.0,
,,,0,18,-1,0,0.0969100130080564,0.020971520000000007,,,,,,,,,staircase,267.47651349997614,132.0,2.0,72.0,0.020971520000000007,,,,6,0.6932251999969594,0.8444129000417888,,,,1,,,,72607,60.0,
,,,0,19,-1,0,0.0969100130080564,0.020971520000000007,,,,,,,,,staircase,271.8457336000283,156.0,2.0,72.0,0.020971520000000007,,,,6,0.5410476999823004,0.708366799983196,,,,1,,,,72607,60.0,
,,,0,20,-1,0,0.0969100130080564,0.016777216000000005,,,,,,,,,staircase,276.4644789000158,144.0,2.0,72.0,0.016777216000000005,,,,0,1.6288946000277065,1.7980128000490367,,,,0,,,,72607,60.0,
,,,0,21,-1,0,0.0969100130080564,0.020971520000000007,,,,,,,,,staircase,281.97060160001274,174.0,2.0,72.0,0.020971520000000007,,,,1,0.7708900999859907,0.9244469000259414,,,,1,,,,72607,60.0,
,,,0,22,-1,0,0.0969100130080564,0.020971520000000007,,,,,,,,,staircase,287.86179340002127,174.0,2.0,72.0,0.020971520000000007,,,,7,0.5411795999971218,0.7244425999815576,,,,1,,,,72607,60.0,
,,,0,23,-1,0,0.0969100130080564,0.016777216000000005,,,,,,,,,staircase,292.81233689998044,138.0,2.0,72.0,0.016777216000000005,,,,0,0.5758859000052325,0.7426306999986991,,,,1,,,,72607,60.0,
,,,0,24,-1,0,0.0969100130080564,0.016777216000000005,,,,,,,,,staircase,297.1622180999839,174.0,2.0,72.0,0.016777216000000005,,,,7,1.729020099970512,1.8790112999849953,,,,1,,,,72607,60.0,
,,,0,25,-1,0,0.0969100130080564,0.013421772800000004,,,,,,,,,staircase,303.25202130002435,150.0,2.0,72.0,0.013421772800000004,,,,1,2.385647599992808,2.5195913999923505,,,,1,,,,72607,60.0,
,,,0,26,-1,0,0.0969100130080564,0.013421772800000004,,,,,,,,,staircase,309.8588606999838,144.0,2.0,72.0,0.013421772800000004,,,,6,1.006263899966143,1.1728232999448664,,,,0,,,,72607,60.0,
,,,0,27,-1,0,0.0969100130080564,0.016777216000000005,,,,,,,,,staircase,314.74623049999354,156.0,2.0,72.0,0.016777216000000005,,,,6,0.8443478999543004,1.0280798999592662,,,,1,,,,72607,60.0,
,,,0,28,-1,0,0.0969100130080564,0.016777216000000005,,,,,,,,,staircase,319.6805007000221,138.0,2.0,72.0,0.016777216000000005,,,,7,1.7245360999950208,1.8746904999716207,,,,0,,,,72607,60.0,
,,,0,29,-1,0,0.0969100130080564,0.020971520000000007,,,,,,,,,staircase,325.15290579997236,162.0,2.0,72.0,0.020971520000000007,,,,1,0.5379829000448808,0.6879480000352487,,,,1,,,,72607,60.0,
,,,0,30,-1,0,0.0969100130080564,0.020971520000000007,,,,,,,,,staircase,330.26187019998906,138.0,2.0,72.0,0.020971520000000007,,,,1,0.5599525999859907,0.6922749999794178,,,,1,,,,72607,60.0,
,,,0,31,-1,0,0.0969100130080564,0.016777216000000005,,,,,,,,,staircase,334.72656440001447,168.0,2.0,72.0,0.016777216000000005,,,,7,0.4081863000174053,0.5582855000393465,,,,1,,,,72607,60.0,
,,,0,32,-1,0,0.0969100130080564,0.016777216000000005,,,,,,,,,staircase,339.4114542999887,174.0,2.0,72.0,0.016777216000000005,,,,0,0.8469676999957301,1.0639086000155658,,,,0,,,,72607,60.0,
,,,0,33,-1,0,0.0969100130080564,0.020971520000000007,,,,,,,,,staircase,344.6830841000192,168.0,2.0,72.0,0.020971520000000007,,,,1,0.5454537000041455,0.6955372000229545,,,,1,,,,72607,60.0,
,,,0,34,-1,0,0.0969100130080564,0.020971520000000007,,,,,,,,,staircase,349.5022271000198,156.0,2.0,72.0,0.020971520000000007,,,,0,0.5384693000232801,0.688498499977868,,,,1,,,,72607,60.0,
,,,0,35,-1,0,0.0969100130080564,0.016777216000000005,,,,,,,,,staircase,354.81327629997395,144.0,2.0,72.0,0.016777216000000005,,,,7,0.689560699975118,0.8407568999682553,,,,1,,,,72607,60.0,
,,,0,36,-1,0,0.0969100130080564,0.016777216000000005,,,,,,,,,staircase,359.379261700029,144.0,2.0,72.0,0.016777216000000005,,,,6,0.46100740000838414,0.5941986999823712,,,,1,,,,72607,60.0,
,,,0,37,-1,0,0.0969100130080564,0.013421772800000004,,,,,,,,,staircase,363.6973098000162,150.0,2.0,72.0,0.013421772800000004,,,,0,2.1570631000213325,2.3247499000281096,,,,1,,,,72607,60.0,
,,,0,38,-1,0,0.0969100130080564,0.013421772800000004,,,,,,,,,staircase,369.8204830000177,162.0,2.0,72.0,0.013421772800000004,,,,7,5.7711307000136,5.889771200018004,,,,1,,,,72607,60.0,
,,,0,39,-1,0,0.0969100130080564,0.010737418240000003,,,,,,,,,staircase,380.29805649997434,168.0,2.0,72.0,0.010737418240000003,,,,6,1.889509000000544,2.0040940000326373,,,,1,,,,72607,60.0,
,,,0,40,-1,0,0.0969100130080564,0.010737418240000003,,,,,,,,,staircase,386.4304419999826,156.0,2.0,72.0,0.010737418240000003,,,,1,1.151347800041549,1.3343532000435516,,,,0,,,,72607,60.0,
,,,0,41,-1,0,0.0969100130080564,0.013421772800000004,,,,,,,,,staircase,391.68668769998476,138.0,2.0,72.0,0.013421772800000004,,,,6,0.7050728999893181,0.8384364999947138,,,,1,,,,72607,60.0,
,,,0,42,-1,0,0.0969100130080564,0.013421772800000004,,,,,,,,,staircase,396.49582710000686,162.0,2.0,72.0,0.013421772800000004,,,,7,0.879147199972067,1.0119661000207998,,,,1,,,,72607,60.0,
,,,0,43,-1,0,0.0969100130080564,0.010737418240000003,,,,,,,,,staircase,401.64406050002435,156.0,2.0,72.0,0.010737418240000003,,,,1,0.825741000007838,0.959121200023219,,,,1,,,,72607,60.0,
,,,0,44,-1,0,0.0969100130080564,0.010737418240000003,,,,,,,,,staircase,406.5132164999959,156.0,2.0,72.0,0.010737418240000003,,,,0,2.3316636999952607,2.498213000013493,,,,0,,,,72607,60.0,
,,,0,45,-1,0,0.0969100130080564,0.013421772800000004,,,,,,,,,staircase,412.91902969998773,174.0,2.0,72.0,0.013421772800000004,,,,1,1.3709021999966353,1.5256252000108361,,,,1,,,,72607,60.0,
,,,0,46,-1,0,0.0969100130080564,0.013421772800000004,,,,,,,,,staircase,418.7960384999751,132.0,2.0,72.0,0.013421772800000004,,,,7,1.8614866000134498,1.9949549000011757,,,,1,,,,72607,60.0,
,,,0,47,-1,0,0.0969100130080564,0.010737418240000003,,,,,,,,,staircase,424.3616939000203,168.0,2.0,72.0,0.010737418240000003,,,,6,1.3290906000183895,1.480033200001344,,,,1,,,,72607,60.0,
,,,0,48,-1,0,0.0969100130080564,0.010737418240000003,,,,,,,,,staircase,429.96469980000984,138.0,2.0,72.0,0.010737418240000003,,,,1,0.8044345999951474,0.9553162999800406,,,,1,,,,72607,60.0,
,,,0,49,-1,0,0.0969100130080564,0.008589934592000002,,,,,,,,,staircase,434.51780799997505,180.0,2.0,72.0,0.008589934592000002,,,,0,0.9164638000074774,1.133072299999185,,,,0,,,,72607,60.0,
,,,0,50,-1,0,0.0969100130080564,0.010737418240000001,,,,,,,,,staircase,440.02949879999505,174.0,2.0,72.0,0.010737418240000001,,,,6,1.3770621999865398,1.5434309000265785,,,,0,,,,72607,60.0,
,,,0,51,-1,0,0.0969100130080564,0.013421772800000002,,,,,,,,,staircase,446.06149390002247,180.0,2.0,72.0,0.013421772800000002,,,,7,1.5803404999896884,1.7303754999884404,,,,0,,,,72607,60.0,
,,,0,52,-1,0,0.0969100130080564,0.016777216000000005,,,,,,,,,staircase,452.099331800011,162.0,2.0,72.0,0.016777216000000005,,,,7,1.8490437000291422,1.9820854000281543,,,,0,,,,72607,60.0,
,,,0,53,-1,0,0.0969100130080564,0.020971520000000007,,,,,,,,,staircase,458.1190127999871,162.0,2.0,72.0,0.020971520000000007,,,,6,0.6727729999693111,0.7554637999855913,,,,1,,,,72607,60.0,
,,,0,54,-1,0,0.0969100130080564,0.020971520000000007,,,,,,,,,staircase,463.3297738999827,174.0,2.0,72.0,0.020971520000000007,,,,6,0.529978199978359,0.6464623999781907,,,,1,,,,72607,60.0,
,,,0,55,-1,0,0.0969100130080564,0.016777216000000005,,,,,,,,,staircase,468.19667069998104,162.0,2.0,72.0,0.016777216000000005,,,,6,1.144503200019244,1.2946935999789275,,,,1,,,,72607,60.0,
,,,0,56,-1,0,0.0969100130080564,0.016777216000000005,,,,,,,,,staircase,473.49704340001335,126.0,2.0,72.0,0.016777216000000005,,,,1,0.7706961000221781,0.905999900016468,,,,1,,,,72607,60.0,
,,,0,57,-1,0,0.0969100130080564,0.013421772800000004,,,,,,,,,staircase,477.8048147999798,162.0,2.0,72.0,0.013421772800000004,,,,7,1.0917581000248902,1.2326938000041991,,,,0,,,,72607,60.0,
,,,0,58,-1,0,0.0969100130080564,0.016777216000000005,,,,,,,,,staircase,483.04555999999866,132.0,2.0,72.0,0.016777216000000005,,,,0,0.2737868999829516,0.4551233000238426,,,,1,,,,72607,60.0,
,,,0,59,-1,0,0.0969100130080564,0.016777216000000005,,,,,,,,,staircase,487.56020130001707,156.0,2.0,72.0,0.016777216000000005,,,,6,0.6113415999570861,0.7606896999641322,,,,1,,,,72607,60.0,
,,,0,60,-1,0,0.0969100130080564,0.013421772800000004,,,,,,,,,staircase,492.2445523000206,132.0,2.0,72.0,0.013421772800000004,,,,1,1.2575006000115536,1.37427430000389,,,,0,,,,72607,60.0,
,,,0,61,-1,0,0.0969100130080564,0.016777216000000005,,,,,,,,,staircase,497.1316572999931,138.0,2.0,72.0,0.016777216000000005,,,,7,0.3363707999815233,0.48657369997818023,,,,1,,,,72607,60.0,
,,,0,62,-1,0,0.0969100130080564,0.016777216000000005,,,,,,,,,staircase,501.23763380001765,144.0,2.0,72.0,0.016777216000000005,,,,0,0.36716089997207746,0.5167813999578357,,,,1,,,,72607,60.0,
,,,0,63,-1,0,0.0969100130080564,0.013421772800000004,,,,,,,,,staircase,505.5907689000014,180.0,2.0,72.0,0.013421772800000004,,,,7,1.6908501999569125,1.8598219999694265,,,,1,,,,72607,60.0,
,,,0,64,-1,0,0.0969100130080564,0.013421772800000004,,,,,,,,,staircase,512.2476788000204,138.0,2.0,72.0,0.013421772800000004,,,,6,1.8304832999710925,1.9638921999721788,,,,0,,,,72607,60.0,
,,,0,65,-1,0,0.0969100130080564,0.016777216000000005,,,,,,,,,staircase,517.8140759000089,150.0,2.0,72.0,0.016777216000000005,,,,6,0.6144794999854639,0.7467750000068918,,,,0,,,,72607,60.0,
,,,0,66,-1,0,0.0969100130080564,0.020971520000000007,,,,,,,,,staircase,522.3673888000194,168.0,2.0,72.0,0.020971520000000007,,,,7,0.4597054999903776,0.5766908000223339,,,,1,,,,72607,60.0,
,,,0,67,-1,0,0.0969100130080564,0.020971520000000007,,,,,,,,,staircase,527.0541599999997,138.0,2.0,72.0,0.020971520000000007,,,,6,0.24130370002239943,0.3417740000295453,,,,1,,,,72607,60.0,
,,,0,68,-1,0,0.0969100130080564,0.016777216000000005,,,,,,,,,staircase,531.5792001999798,150.0,2.0,72.0,0.016777216000000005,,,,6,0.2728552999906242,0.4055080999969505,,,,1,,,,72607,60.0,
,,,0,69,-1,0,0.0969100130080564,0.016777216000000005,,,,,,,,,staircase,535.7964120000252,126.0,2.0,72.0,0.016777216000000005,,,,6,0.42718040000181645,0.5268763999920338,,,,1,,,,72607,60.0,
,,,0,-1,-1,0,,,materials/instructions\11_session_start.png,539.7717240999918,573.2280273999786,0,33.271179800038226,33.45453460002318,0.011708700039889663,33.462394100031815,,,,,,,,,,,,,,,,,,,,72607,60.0,
,,,0,-1,-1,0,,,,,,,,,,,,,,,,,,,,,,,,,,,0.015326825676800004,,,72607,60.0,
77,-77,90,0,0,0,11,,,,,,,,,,,session,573.2485491000116,174.0,2.0,72.0,0.015326825676800004,2,4.50731190002989,4.67519340000581,0,0.675420599989593,0.8256464999867603,0,0.9173861999879591,1.0841284000198357,,,51.0,66.0,72607,60.0,
-77,-77,-45,0,1,1,12,,,,,,,,,,,session,586.3178629999747,162.0,2.0,72.0,0.015326825676800004,4,2.5295985000557266,2.747086000046693,1,0.8704277999931946,0.9730638000182807,0,0.4837546999915503,0.7027671000105329,,,66.0,63.0,72607,60.0,
77,77,90,0,2,2,3,,,,,,,,,,,session,597.0862311000237,174.0,2.0,72.0,0.015326825676800004,5,1.6040324000059627,1.7394896000041626,6,0.4792854999541305,0.6285565999569371,0,0.415802099974826,0.5664223000057973,,,57.0,51.0,72607,60.0,
77,77,45,0,3,3,2,,,,,,,,,,,session,606.1844021999859,150.0,2.0,72.0,0.015326825676800004,5,1.8796991999843158,2.0130638999980874,7,0.3630438000545837,0.4967173000331968,0,0.3035164999892004,0.5112898999941535,,,72.0,63.0,72607,60.0,
-77,77,-45,0,4,4,4,,,,,,,,,,,session,615.3981768999947,126.0,2.0,72.0,0.015326825676800004,2,0.740300900011789,0.8742062000092119,7,0.5287192999967374,0.6453674999647774,1,0.8569178999750875,0.9572136999922805,,,60.0,48.0,72607,60.0,
77,-77,45,0,5,5,10,,,,,,,,,,,session,623.8510720999911,168.0,2.0,72.0,0.015326825676800004,4,2.4752394999959506,2.658345800009556,6,0.41459759999997914,0.5312704999814741,0,0.6030324000166729,0.7543150000274181,,,63.0,60.0,72607,60.0,
77,-77,-45,0,6,6,8,,,,,,,,,,,session,634.088314099994,162.0,2.0,72.0,0.015326825676800004,4,0.39016309997532517,0.5400852999882773,0,0.47592890000669286,0.6068107000319287,1,0.5512192999594845,0.6848941000062041,,,57.0,48.0,72607,60.0,
-77,77,0,0,7,7,5,,,,,,,,,,,session,641.9678803000133,126.0,2.0,72.0,0.015326825676800004,3,2.492924700025469,2.6742720999754965,0,0.3311880999826826,0.5146152999950573,0,0.4866895999875851,0.6701954999589361,,,72.0,60.0,72607,60.0,
-77,77,45,0,8,8,6,,,,,,,,,,,session,651.5841727000079,180.0,2.0,72.0,0.015326825676800004,4,1.9002480000490323,2.0503448999952525,1,0.4214744999771938,0.5715032999869436,0,0.2612053999910131,0.41343679995043203,,,57.0,69.0,72607,60.0,
-77,77,90,0,9,9,7,,,,,,,,,,,session,661.2792598999804,162.0,2.0,72.0,0.015326825676800004,2,0.4092812000308186,0.577044100034982,6,0.8093838999629952,0.9267915999516845,6,2.15541220002342,2.236670700018294,,,72.0,63.0,72607,60.0,
77,77,-45,0,10,10,0,,,,,,,,,,,session,671.6514901000191,180.0,2.0,72.0,0.015326825676800004,3,1.0510233000386506,1.2187478000414558,7,1.3285233000060543,1.445223500020802,0,0.4355249999789521,0.6040266000200063,,,48.0,69.0,72607,60.0,
-77,-77,90,0,11,11,15,,,,,,,,,,,session,681.3251391000231,132.0,2.0,72.0,0.015326825676800004,5,1.0919960999744944,1.224007899989374,1,0.37487629998940974,0.49046500003896654,0,0.045149900019168854,0.21360989997629076,,,48.0,69.0,72607,60.0,
77,-77,0,0,12,12,9,,,,,,,,,,,session,689.615256900026,168.0,2.0,72.0,0.015326825676800004,4,0.7965628999518231,0.9633210999891162,6,2.629282800015062,2.7621763999923132,0,0.8364463999751024,1.0058293999754824,,,63.0,63.0,72607,60.0,
-77,-77,0,0,13,13,13,,,,,,,,,,,session,700.6916910000145,174.0,2.0,72.0,0.015326825676800004,2,1.1961574000306427,1.3751251000212505,7,1.1633208999992348,1.3467167999478988,0,0.35241730004781857,0.4838861000025645,,,60.0,54.0,72607,60.0,
77,77,0,0,14,14,1,,,,,,,,,,,session,710.4807992000133,126.0,2.0,72.0,0.015326825676800004,5,0.40877239999827,0.5431112000369467,0,0.547324099985417,0.6630802999716252,1,0.30061139998724684,0.40067820000695065,,,51.0,54.0,72607,60.0,
-77,-77,45,0,15,15,14,,,,,,,,,,,session,717.3682030999917,132.0,2.0,72.0,0.015326825676800004,4,1.00048990000505,1.1356710999971256,1,0.4807390999631025,0.5823527000029571,0,0.33928080002078786,0.42192079999949783,,,57.0,48.0,72607,60.0,
-77,77,-45,1,0,16,4,,,,,,,,,,,session,724.892328899994,144.0,2.0,72.0,0.015326825676800004,2,0.30296429997542873,0.4361897999770008,1,0.5601855000131764,0.646133300033398,1,0.9309179999982007,1.01522959995782,,,69.0,60.0,72607,60.0,
77,-77,0,1,1,17,9,,,,,,,,,,,session,733.7500228999997,144.0,2.0,72.0,0.015326825676800004,2,1.5810412000282668,1.7304148999974132,0,0.2953440999845043,0.46150849998230115,0,0.30412089999299496,0.42024659999879077,,,57.0,60.0,72607,60.0,
77,77,90,1,2,18,3,,,,,,,,,,,session,742.1539596000221,132.0,2.0,72.0,0.015326825676800004,4,1.3105276999995112,1.4773437000112608,7,0.31898919999366626,0.46930180001072586,0,0.2845978999976069,0.4849875000072643,,,63.0,63.0,72607,60.0,
77,-77,90,1,3,19,11,,,,,,,,,,,session,750.3513212000253,144.0,2.0,72.0,0.015326825676800004,3,1.7945040999911726,1.9778666999773122,1,0.896781999967061,0.9801225999835879,0,0.47098230000119656,0.6223776999977417,,,60.0,48.0,72607,60.0,
77,-77,90,1,3,19,11,,,materials/instructions\12_break.png,759.7239770999877,787.3526757999789,0,27.45875650004018,27.625697900017258,0.01038009999319911,27.633645199995954,,,,,,,,,,,,,,,,,,,,72607,60.0,
77,77,0,1,4,20,1,,,,,,,,,,,session,787.3675167000038,162.0,2.0,72.0,0.015326825676800004,5,1.3586424000095576,1.509628000028897,1,0.38887569995131344,0.5221802999731153,0,0.2693100000033155,0.41665239998837933,,,51.0,69.0,72607,60.0,
-77,77,0,1,5,21,5,,,,,,,,,,,session,796.0133602999849,180.0,2.0,72.0,0.015326825676800004,2,0.9521968000335619,1.083531700016465,6,0.3459572999854572,0.47932640003273264,0,0.28592769999522716,0.43595199997071177,,,72.0,69.0,72607,60.0,
-77,77,90,1,6,22,7,,,,,,,,,,,session,804.8005278999917,168.0,2.0,72.0,0.015326825676800004,2,0.3473513000062667,0.46403839997947216,6,0.41455829999176785,0.5492475000210106,1,0.33389470004476607,0.43325390003155917,,,63.0,60.0,72607,60.0,
77,77,-45,1,7,23,0,,,,,,,,,,,session,812.5400933999917,132.0,2.0,72.0,0.015326825676800004,5,0.3510035999934189,0.45525360002648085,1,0.5608041000086814,0.6804880000418052,1,1.6136699999915436,1.6969570000073873,,,51.0,48.0,72607,60.0,
77,-77,-45,1,8,24,8,,,,,,,,,,,session,821.1149799000123,132.0,2.0,72.0,0.015326825676800004,3,0.8782607999746688,0.9957318999804556,0,0.3121000000392087,0.39544230001047254,0,0.26911649998510256,0.36863260000245646,,,63.0,48.0,72607,60.0,
-77,-77,45,1,9,25,14,,,,,,,,,,,session,828.3861484000226,174.0,2.0,72.0,0.015326825676800004,3,1.5112485000281595,1.6612958000041544,6,0.3965444000205025,0.530177500040736,0,0.4233742000069469,0.5118992999778129,,,69.0,51.0,72607,60.0,
77,-77,45,1,10,26,10,,,,,,,,,,,session,837.4352518999949,144.0,2.0,72.0,0.015326825676800004,4,0.3380427000229247,0.4713406999944709,7,0.6828528000041842,0.7983795999898575,1,0.9345225999713875,1.0336306999670342,,,66.0,69.0,72607,60.0,
-77,77,45,1,11,27,6,,,,,,,,,,,session,846.2164942999952,168.0,2.0,72.0,0.015326825676800004,2,0.3941788000520319,0.5275708000408486,7,0.4994015999836847,0.6162878999602981,1,0.2831677999929525,0.3509063000092283,,,51.0,69.0,72607,60.0,
77,77,45,1,12,28,2,,,,,,,,,,,session,853.9570889999741,168.0,2.0,72.0,0.015326825676800004,5,0.39501769997878,0.47704239998711273,7,0.5346828000037931,0.639659299980849,1,0.29224370000883937,0.38268670003162697,,,72.0,66.0,72607,60.0,
-77,-77,90,1,13,29,15,,,,,,,,,,,session,862.0216151999775,144.0,2.0,72.0,0.015326825676800004,2,1.4050483999890275,1.5220564000192098,0,0.7589120999909937,0.8927368000149727,0,0.3700587999774143,0.5027077000122517,,,63.0,63.0,72607,60.0,
-77,-77,-45,1,14,30,12,,,,,,,,,,,session,870.901085200021,162.0,2.0,72.0,0.015326825676800004,5,0.815164600033313,0.9315451000002213,7,0.8792995999683626,0.9787109000026248,0,0.33487820002483204,0.43706860003294423,,,51.0,54.0,72607,60.0,
-77,-77,0,1,15,31,13,,,,,,,,,,,session,879.1596737999935,156.0,2.0,72.0,0.015326825676800004,3,0.7229676999850199,0.8727889999863692,7,1.3610659000114538,1.4769440999953076,0,0.6644616000121459,0.8506191999767907,,,57.0,54.0,72607,60.0,
-77,77,45,2,0,32,6,,,,,,,,,,,session,888.8058503000066,168.0,2.0,72.0,0.015326825676800004,2,0.3645341999945231,0.49799790000543,7,0.7148654999909922,0.8142871999880299,1,0.41847299999790266,0.5359118999913335,,,54.0,54.0,72607,60.0,
77,77,-45,2,1,33,0,,,,,,,,,,,session,896.7225596000208,132.0,2.0,72.0,0.015326825676800004,5,0.8646899000159465,0.9812050000182353,1,0.5290708999964409,0.629137100011576,1,0.7288581000175327,0.833030299982056,,,54.0,66.0,72607,60.0,
77,77,90,2,2,34,3,,,,,,,,,,,session,904.8195618999889,168.0,2.0,72.0,0.015326825676800004,5,0.41331189998891205,0.5299624999752268,6,1.323240600002464,1.4729113000212237,1,1.0497304000309668,1.1183182999957353,,,48.0,54.0,72607,60.0,
77,-77,90,2,3,35,11,,,,,,,,,,,session,913.9185389999766,156.0,2.0,72.0,0.015326825676800004,2,1.0679839000222273,1.2182297000545077,0,0.49551889998838305,0.6288484000251628,0,0.2857306999503635,0.43596679996699095,,,72.0,63.0,72607,60.0,
77,77,0,2,4,36,1,,,,,,,,,,,session,922.4904964999878,168.0,2.0,72.0,0.015326825676800004,5,0.4037501999991946,0.48780230002012104,0,0.42835569998715073,0.5446888000005856,1,0.8340981000219472,0.966299700026866,,,69.0,69.0,72607,60.0,
77,77,45,2,5,37,2,,,,,,,,,,,session,931.59890859999,162.0,2.0,72.0,0.015326825676800004,5,1.6629545000032522,1.7964696999988519,1,1.5979018000070937,1.7144171000109054,0,1.8869722000090405,2.037091700010933,,,54.0,66.0,72607,60.0,
-77,77,-45,2,6,38,4,,,,,,,,,,,session,943.3060577000142,138.0,2.0,72.0,0.015326825676800004,3,1.2281229000072926,1.42781029996695,6,0.5636186000192538,0.6763632000074722,0,0.35082160000456497,0.45089469995582476,,,63.0,54.0,72607,60.0,
-77,-77,0,2,7,39,13,,,,,,,,,,,session,951.6335197000299,132.0,2.0,72.0,0.015326825676800004,3,0.855672899982892,1.0382357999915257,6,0.35247260000323877,0.4859483999898657,0,0.6154329000273719,0.7158431999851018,,,66.0,48.0,72607,60.0,
-77,-77,0,2,7,39,13,,,materials/instructions\12_break.png,959.4454879999976,975.963247800013,0,16.39895100001013,16.51564669999061,0.024657199974171817,16.52381039998727,,,,,,,,,,,,,,,,,,,,72607,60.0,
77,-77,0,2,8,40,9,,,,,,,,,,,session,975.9786722999997,168.0,2.0,72.0,0.015326825676800004,2,2.5651740999892354,2.681876700022258,0,0.9339480000198819,1.0673177000135183,0,0.5695320999948308,0.7529263999895193,,,69.0,48.0,72607,60.0,
-77,-77,90,2,9,41,15,,,,,,,,,,,session,986.691703199991,138.0,2.0,72.0,0.015326825676800004,4,0.5633886999567039,0.712702699995134,7,1.0822680999990553,1.2044990999856964,0,0.2616643999936059,0.41237189999083057,,,54.0,63.0,72607,60.0,
77,-77,-45,2,10,42,8,,,,,,,,,,,session,994.7332409999799,150.0,2.0,72.0,0.015326825676800004,5,1.4442990999668837,1.5275900000124238,1,0.42796000000089407,0.5627628000220284,0,0.3031751000089571,0.3868145000305958,,,57.0,51.0,72607,60.0,
-77,-77,-45,2,11,43,12,,,,,,,,,,,session,1002.9684258999769,144.0,2.0,72.0,0.015326825676800004,2,1.0319408000214025,1.1820382000296377,1,0.42355439998209476,0.5410349000012502,0,0.3422959000454284,0.5066797000472434,,,63.0,48.0,72607,60.0,
-77,77,0,2,12,44,5,,,,,,,,,,,session,1010.9088213000214,162.0,2.0,72.0,0.015326825676800004,4,4.175232000008691,4.345413399976678,6,0.7097137999953702,0.858819900022354,0,0.4506863999995403,0.6842613000189885,,,72.0,51.0,72607,60.0,
77,-77,45,2,13,45,10,,,,,,,,,,,session,1023.5682453999761,150.0,2.0,72.0,0.015326825676800004,5,0.914684799965471,1.0139337999862619,1,0.7619778999942355,0.8964908999623731,0,0.40505970001686364,0.5714124999940395,,,60.0,54.0,72607,60.0,
-77,77,90,2,14,46,7,,,,,,,,,,,session,1031.891486299981,138.0,2.0,72.0,0.015326825676800004,2,0.3502969999681227,0.47275099996477365,6,0.6611534999683499,0.8091389999608509,1,0.8392646000138484,0.9253102000220679,,,54.0,57.0,72607,60.0,
-77,-77,45,2,15,47,14,,,,,,,,,,,session,1039.6866019999725,168.0,2.0,72.0,0.015326825676800004,5,1.5948483999818563,1.7115666000172496,1,0.8323688000091352,0.932422999991104,0,0.673888600023929,0.8728144000051543,,,72.0,48.0,72607,60.0,
-77,-77,90,3,0,48,15,,,,,,,,,,,session,1049.4705399000086,132.0,2.0,72.0,0.015326825676800004,5,0.7979724000324495,0.9303078000084497,1,0.7320646999869496,0.8642687000101432,0,0.3217886000056751,0.4220018000341952,,,66.0,60.0,72607,60.0,
77,-77,90,3,1,49,11,,,,,,,,,,,session,1057.4433273000177,126.0,2.0,72.0,0.015326825676800004,4,1.5572568000061437,1.7214486000011675,6,1.4749588000122458,1.5925490000518039,0,0.32172350003384054,0.4372854000539519,,,63.0,72.0,72607,60.0,
77,-77,0,3,2,50,9,,,,,,,,,,,session,1067.6194086999749,138.0,2.0,72.0,0.015326825676800004,2,0.49941429996397346,0.6162295999820344,1,0.9786285999580286,1.11295959999552,1,0.272100500005763,0.3724604999879375,,,66.0,63.0,72607,60.0,
-77,77,45,3,3,51,6,,,,,,,,,,,session,1075.6088643000112,126.0,2.0,72.0,0.015326825676800004,2,0.39759359997697175,0.5475152999861166,7,0.614762100041844,0.7916443000431173,1,0.3311639000312425,0.46482560003641993,,,63.0,66.0,72607,60.0,
-77,-77,45,3,4,52,14,,,,,,,,,,,session,1083.1339835000108,174.0,2.0,72.0,0.015326825676800004,2,1.1421631999546662,1.2768924999982119,6,0.2640521000139415,0.38082980003673583,0,0.28748470003483817,0.4375525999930687,,,72.0,48.0,72607,60.0,
77,-77,-45,3,5,53,8,,,,,,,,,,,session,1091.5863753000158,150.0,2.0,72.0,0.015326825676800004,4,0.8123752999817953,0.9124415999976918,6,0.5103660000022501,0.6438512000022456,0,0.23839650000445545,0.4043441000394523,,,54.0,63.0,72607,60.0,
77,77,90,3,6,54,3,,,,,,,,,,,session,1099.4578705999884,132.0,2.0,72.0,0.015326825676800004,3,0.8777227000100538,1.0275692000286654,1,0.7993551999679767,0.9291989000048488,0,0.6001388999866322,0.7501119999797083,,,57.0,69.0,72607,60.0,
-77,77,0,3,7,55,5,,,,,,,,,,,session,1108.2346132000093,156.0,2.0,72.0,0.015326825676800004,2,0.440608799981419,0.6072212999570183,0,0.29878179996740073,0.48200369998812675,1,0.35561619995860383,0.4557195999659598,,,63.0,69.0,72607,60.0,
-77,77,90,3,8,56,7,,,,,,,,,,,session,1116.020611200016,150.0,2.0,72.0,0.015326825676800004,4,0.7828964000218548,0.9329288000008091,6,0.5796571999671869,0.7623550000134856,0,0.25945269997464493,0.3671897999593057,,,66.0,57.0,72607,60.0,
77,77,-45,3,9,57,0,,,,,,,,,,,session,1124.0874723999877,126.0,2.0,72.0,0.015326825676800004,5,0.5008583000162616,0.6185305999824777,1,0.5307890999829397,0.6306546999840066,6,0.5675298999994993,0.6321991000440903,,,69.0,69.0,72607,60.0,
77,-77,45,3,10,58,10,,,,,,,,,,,session,1132.318359100027,126.0,2.0,72.0,0.015326825676800004,4,0.34594020002987236,0.46263860003091395,7,0.631541000038851,0.7492321000318043,1,0.28494390001287684,0.38501270004780963,,,66.0,72.0,72607,60.0,
-77,77,-45,3,11,59,4,,,,,,,,,,,session,1139.7556074999738,126.0,2.0,72.0,0.015326825676800004,4,0.8606689000152983,0.994864400010556,6,2.1045864999759942,2.2826619999832474,0,0.31044310005381703,0.48098220000974834,,,54.0,63.0,72607,60.0,
-77,77,-45,3,11,59,4,,,materials/instructions\12_break.png,1149.0585091999965,1169.445912999974,0,20.28872529999353,20.385289199999534,0.022775800025556237,20.39682810002705,,,,,,,,,,,,,,,,,,,,72607,60.0,
-77,-77,-45,3,12,60,12,,,,,,,,,,,session,1169.4657566000242,156.0,2.0,72.0,0.015326825676800004,3,4.178039200021885,4.294762599980459,1,0.26418009999906644,0.37908649997552857,7,0.011847199988551438,0.013741100032348186,,,69.0,66.0,72607,60.0,
77,77,0,3,13,61,1,,,,,,,,,,,session,1180.7458960000076,138.0,2.0,72.0,0.015326825676800004,5,1.2672731000347994,1.4162135000224225,1,0.9328822999959812,1.0830106000066735,0,0.3373266999842599,0.4541183999972418,,,48.0,66.0,72607,60.0,
-77,-77,0,3,14,62,13,,,,,,,,,,,session,1189.3446543000173,150.0,2.0,72.0,0.015326825676800004,3,0.34391579998191446,0.47702879999997094,1,0.3945295000448823,0.5266197000164539,0,0.2824184999917634,0.4001261999947019,,,51.0,72.0,72607,60.0,
77,77,45,3,15,63,2,,,,,,,,,,,session,1197.4037895000074,132.0,2.0,72.0,0.015326825676800004,4,0.862869500007946,0.9453841000213288,6,0.809410999994725,0.8919752000365406,0,0.4016766999848187,0.5017535000224598,,,63.0,48.0,72607,60.0,
77,77,90,4,0,64,3,,,,,,,,,,,session,1205.2391253000242,156.0,2.0,72.0,0.015326825676800004,5,0.39435140002751723,0.4775754000293091,6,0.9769562000292353,1.060400300018955,1,0.2961908000288531,0.38167140004225075,,,48.0,60.0,72607,60.0,
-77,-77,90,4,1,65,15,,,,,,,,,,,session,1213.0071956000174,180.0,2.0,72.0,0.015326825676800004,2,1.5648427000269294,1.71537009999156,0,0.2618627999909222,0.3953684000298381,0,0.4898144999751821,0.6212321000057273,,,72.0,51.0,72607,60.0,
-77,-77,-45,4,2,66,12,,,,,,,,,,,session,1222.6390419999952,150.0,2.0,72.0,0.015326825676800004,2,2.0504261999740265,2.1172638999996707,0,0.010915299993939698,0.012846399971749634,0,0.2358142000157386,0.3523912000237033,,,60.0,63.0,72607,60.0,
77,-77,-45,4,3,67,8,,,,,,,,,,,session,1231.1246565000038,180.0,2.0,72.0,0.015326825676800004,4,0.8568604000029154,1.006887800002005,0,0.36204300000099465,0.5090351999970153,0,0.2865385000477545,0.43884560000151396,,,72.0,57.0,72607,60.0,
77,77,0,4,4,68,1,,,,,,,,,,,session,1239.9383142999723,144.0,2.0,72.0,0.015326825676800004,5,0.7063571000471711,0.8403514000237919,6,0.277995899959933,0.3965874999994412,0,0.3234684999915771,0.4205958000384271,,,72.0,51.0,72607,60.0,
77,-77,0,4,5,69,9,,,,,,,,,,,session,1247.5040105999797,144.0,2.0,72.0,0.015326825676800004,2,1.431568600004539,1.564167600008659,0,0.6497990000061691,0.7999394000507891,0,0.300225600018166,0.46692560001974925,,,54.0,66.0,72607,60.0,
-77,77,-45,4,6,70,4,,,,,,,,,,,session,1256.1788807000266,150.0,2.0,72.0,0.015326825676800004,2,0.605180200014729,0.7751408999902196,7,0.9130093000130728,1.062986400036607,1,0.45242180000059307,0.6353978000115603,,,51.0,54.0,72607,60.0,
-77,-77,45,4,7,71,14,,,,,,,,,,,session,1265.0204565000022,138.0,2.0,72.0,0.015326825676800004,5,1.0291741999681108,1.1459660999826156,6,0.8999465000233613,0.9833499999949709,0,0.7712547000264749,0.8226273999898694,,,60.0,63.0,72607,60.0,
-77,77,45,4,8,72,6,,,,,,,,,,,session,1273.7618709999952,144.0,2.0,72.0,0.015326825676800004,2,0.9775677000288852,1.1464917000266723,1,0.6615125000244007,0.7947572999983095,0,0.7186305999639444,0.8517805999726988,,,72.0,72.0,72607,60.0,
-77,77,90,4,9,73,7,,,,,,,,,,,session,1282.8228745000088,162.0,2.0,72.0,0.015326825676800004,2,0.36040639999555424,0.4620708000147715,6,0.7188661000109278,0.835617300006561,0,0.48664720001397654,0.6192916000145487,,,48.0,60.0,72607,60.0,
77,-77,45,4,10,74,10,,,,,,,,,,,session,1290.6870214000228,126.0,2.0,72.0,0.015326825676800004,3,1.1813726000254974,1.2814950000029057,1,0.5267453000415117,0.6614574000122957,0,0.28897489997325465,0.4048488999833353,,,51.0,63.0,72607,60.0,
77,77,45,4,11,75,2,,,,,,,,,,,session,1298.4776472999947,168.0,2.0,72.0,0.015326825676800004,5,0.3639036999666132,0.4675859999842942,7,0.84724269999424,0.9639182999962941,1,0.901609799999278,0.9855071000056341,,,48.0,57.0,72607,60.0,
-77,-77,0,4,12,76,13,,,,,,,,,,,session,1307.635906599986,150.0,2.0,72.0,0.015326825676800004,3,0.42469030001666397,0.4746974000008777,1,0.7492128000012599,0.9020668999874033,1,0.3175660999841057,0.4340309000108391,,,72.0,51.0,72607,60.0,
77,77,-45,4,13,77,0,,,,,,,,,,,session,1315.438920799992,144.0,2.0,72.0,0.015326825676800004,5,0.2809497000416741,0.41457720001926646,1,0.6152874000254087,0.7321699999738485,1,0.37129499996080995,0.4727650999557227,,,63.0,54.0,72607,60.0,
-77,77,0,4,14,78,5,,,,,,,,,,,session,1322.8465246999986,150.0,2.0,72.0,0.015326825676800004,2,0.35517049999907613,0.5218922999920323,0,0.4085736999986693,0.5426975000300445,1,0.3649133999715559,0.48250599997118115,,,66.0,69.0,72607,60.0,
77,-77,90,4,15,79,11,,,,,,,,,,,session,1331.2050595000037,168.0,2.0,72.0,0.015326825676800004,4,0.8786956000258215,0.9954024000326172,0,0.362656400015112,0.49576839996734634,0,0.28331049997359514,0.402528699953109,,,51.0,54.0,72607,60.0,
77,-77,90,4,15,79,11,,,materials/instructions\12_break.png,1339.1207982000196,1339.1552568000043,0,0.0323482999810949,0.03236999997170642,0.021968399989418685,0.03878529998473823,,,,,,,,,,,,,,,,,,,,72607,60.0,
77,-77,0,5,0,80,9,,,,,,,,,,,session,1339.1684984000167,150.0,2.0,72.0,0.015326825676800004,5,1.015163800038863,1.1327635000343435,1,0.8541738000349142,0.9759791000396945,0,0.5027120999875478,0.6185237999889068,,,63.0,51.0,72607,60.0,
-77,-77,0,5,1,81,13,,,,,,,,,,,session,1347.738550500013,174.0,2.0,72.0,0.015326825676800004,2,0.9277899999869987,1.0601969999843277,0,0.5129655000055209,0.6475135000073351,0,0.3674444999778643,0.5175399999716319,,,51.0,63.0,72607,60.0,
-77,77,0,5,2,82,5,,,,,,,,,,,session,1356.2041074999725,168.0,2.0,72.0,0.015326825676800004,4,1.134111399995163,1.335177599976305,0,0.26790679997066036,0.4673504999955185,0,0.2884338000440039,0.43864400003803894,,,63.0,60.0,72607,60.0,
-77,-77,-45,5,3,83,12,,,,,,,,,,,session,1364.7283599000075,174.0,2.0,72.0,0.015326825676800004,3,0.44013230002019554,0.6066984999924898,1,0.546732900023926,0.6803096000221558,1,0.27941109996754676,0.39615579997189343,,,51.0,69.0,72607,60.0,
-77,-77,90,5,4,84,15,,,,,,,,,,,session,1373.3852324999752,162.0,2.0,72.0,0.015326825676800004,5,1.4292569999815896,1.5468016999657266,0,0.3639186000218615,0.4640666000195779,0,0.3161631000111811,0.4017879000166431,,,54.0,51.0,72607,60.0,
77,77,45,5,5,85,2,,,,,,,,,,,session,1381.708069299988,150.0,2.0,72.0,0.015326825676800004,2,0.6825007000006735,0.832517100032419,0,0.32720150001114234,0.5108079999918118,0,0.2582228999817744,0.40971819998230785,,,69.0,48.0,72607,60.0,
77,77,0,5,6,86,1,,,,,,,,,,,session,1389.3663247000077,180.0,2.0,72.0,0.015326825676800004,5,0.42482959997141734,0.5074683999991976,0,0.8501324999961071,0.952513900003396,6,0.5324047000030987,0.6494115000241436,,,69.0,60.0,72607,60.0,
77,77,-45,5,7,87,0,,,,,,,,,,,session,1398.6209559999988,138.0,2.0,72.0,0.015326825676800004,5,0.295383499993477,0.4134495999896899,1,0.5466919000027701,0.6634100000374019,1,0.4888160999980755,0.6238816999830306,,,63.0,51.0,72607,60.0,
77,-77,45,5,8,88,10,,,,,,,,,,,session,1405.9603461999795,144.0,2.0,72.0,0.015326825676800004,2,0.463882600015495,0.6451565999886952,0,0.33655529998941347,0.42540319997351617,1,0.24324119999073446,0.3975518000079319,,,72.0,60.0,72607,60.0,
77,-77,-45,5,9,89,8,,,,,,,,,,,session,1413.456292500021,144.0,2.0,72.0,0.015326825676800004,5,0.6146739999530837,0.7974052999634296,0,0.3040805999771692,0.45363150001503527,0,0.48158239998156205,0.5984552999725565,,,51.0,72.0,72607,60.0,
-77,-77,45,5,10,90,14,,,,,,,,,,,session,1421.2077174999868,138.0,2.0,72.0,0.015326825676800004,4,1.3830361000145786,1.385984099993948,0,0.7972406999906525,0.8483254999737255,0,0.5703952999901958,0.6216652999864891,,,66.0,60.0,72607,60.0,
77,-77,90,5,11,91,11,,,,,,,,,,,session,1429.895750799973,132.0,2.0,72.0,0.015326825676800004,3,1.7077515000128187,1.8640494999708608,0,0.38438699999824166,0.46798600000329316,0,0.3496166999684647,0.43293650000123307,,,48.0,48.0,72607,60.0,
-77,77,90,5,12,92,7,,,,,,,,,,,session,1438.0857686999952,138.0,2.0,72.0,0.015326825676800004,2,0.629878000007011,0.7272976000094786,6,0.6130454000085592,0.7131707000080496,1,0.4320413999957964,0.4820620999671519,,,51.0,51.0,72607,60.0,
-77,77,-45,5,13,93,4,,,,,,,,,,,session,1445.4549007000169,132.0,2.0,72.0,0.015326825676800004,5,0.7662110999808647,0.8829858000390232,0,0.3478114999597892,0.4467573000001721,0,0.31982789997709915,0.38596089999191463,,,54.0,51.0,72607,60.0,
77,77,90,5,14,94,3,,,,,,,,,,,session,1452.5617973000044,144.0,2.0,72.0,0.015326825676800004,5,0.01076979999197647,0.01269879995379597,6,0.6962565999710932,0.8084153999807313,1,0.7349974000244401,0.8660732000134885,,,51.0,51.0,72607,60.0,
-77,77,45,5,15,95,6,,,,,,,,,,,session,1460.1046087000286,138.0,2.0,72.0,0.015326825676800004,5,0.6098759999731556,0.7095229999977164,1,0.5769138999748975,0.6603838999872096,1,0.721573399961926,0.8215945999836549,,,60.0,66.0,72607,60.0,
-77,77,0,6,0,96,5,,,,,,,,,,,session,1468.157614500029,126.0,2.0,72.0,0.015326825676800004,2,1.8128597000031732,1.9463539000134915,6,0.39749050000682473,0.5641483999788761,0,0.33810719999019057,0.4449915000004694,,,69.0,69.0,72607,60.0,
-77,77,-45,6,1,97,4,,,,,,,,,,,session,1476.9567879000097,138.0,2.0,72.0,0.015326825676800004,2,1.5251492999959737,1.6585588999441825,7,2.7410585999605246,2.858344699954614,1,1.6707779999705963,1.756188099971041,,,48.0,72.0,72607,60.0,
77,-77,45,6,2,98,10,,,,,,,,,,,session,1489.674123100005,144.0,2.0,72.0,0.015326825676800004,4,0.8115796999773011,0.9306170999770984,0,0.3149074999964796,0.43184209999162704,0,0.2612154000089504,0.3587163999909535,,,54.0,63.0,72607,60.0,
77,-77,-45,6,3,99,8,,,,,,,,,,,session,1497.1804533000104,174.0,2.0,72.0,0.015326825676800004,5,0.9191711000166833,1.0531227000174113,6,0.6627165999962017,0.812624300015159,0,3.5055995999719016,3.6217897000024095,,,57.0,54.0,72607,60.0,
77,-77,-45,6,3,99,8,,,materials/instructions\12_break.png,1509.5912131000077,1543.9795340999844,0,34.258918899984565,34.38641819998156,0.014353600039612502,34.400159500015434,,,,,,,,,,,,,,,,,,,,72607,60.0,
77,77,45,6,4,100,2,,,,,,,,,,,session,1544.0016969999997,138.0,2.0,72.0,0.015326825676800004,5,0.31970260001253337,0.4378248999710195,7,0.8307552000042051,0.9975351999746636,1,0.37219970003934577,0.5064878000412136,,,60.0,51.0,72607,60.0,
-77,-77,45,6,5,101,14,,,,,,,,,,,session,1552.1766238000127,138.0,2.0,72.0,0.015326825676800004,3,0.6806493999902159,0.8475978000205941,0,0.33100370003376156,0.43110450002131984,0,0.37077949999365956,0.01121740002417937,,,66.0,57.0,72607,60.0,
-77,77,45,6,6,102,6,,,,,,,,,,,session,1559.6116773000103,168.0,2.0,72.0,0.015326825676800004,2,0.9760011999751441,1.1094095000298694,0,0.7206329999607988,0.8540604999870993,0,0.31982269999571145,0.4321537999785505,,,60.0,54.0,72607,60.0,
77,-77,90,6,7,103,11,,,,,,,,,,,session,1568.1534490999766,156.0,2.0,72.0,0.015326825676800004,5,1.0962553000426851,1.2319439999992028,1,0.3110537000466138,0.3923302000039257,0,0.265430900035426,0.3334074000013061,,,54.0,72.0,72607,60.0,
-77,-77,90,6,8,104,15,,,,,,,,,,,session,1576.2773769000196,138.0,2.0,72.0,0.015326825676800004,2,0.750700099975802,0.8838257000315934,6,0.8808822999708354,1.0143093999940902,0,0.2845792999723926,0.4193837000057101,,,63.0,48.0,72607,60.0,
-77,-77,0,6,9,105,13,,,,,,,,,,,session,1584.195603500004,132.0,2.0,72.0,0.015326825676800004,3,1.105814000009559,1.2892373999929987,7,0.25868530001025647,0.4381279000081122,0,0.2652910000178963,0.3835604000487365,,,66.0,60.0,72607,60.0,
77,-77,0,6,10,106,9,,,,,,,,,,,session,1592.0742465999792,162.0,2.0,72.0,0.015326825676800004,5,1.975700099952519,2.0927178999991156,6,0.33048570004757494,0.4639102999935858,0,0.3025629000039771,0.4370943999965675,,,69.0,57.0,72607,60.0,
77,77,90,6,11,107,3,,,,,,,,,,,session,1601.3246687999927,144.0,2.0,72.0,0.015326825676800004,5,0.3446591999963857,0.4272046000114642,6,0.38014710001880303,0.4802763999905437,1,0.3032762000220828,0.38664779998362064,,,57.0,54.0,72607,60.0,
77,77,0,6,12,108,1,,,,,,,,,,,session,1608.3295182000147,132.0,2.0,72.0,0.015326825676800004,5,0.3393523000413552,0.4227760000503622,0,0.6754382000071928,0.7766618999885395,1,0.36388589994749054,0.46381289995042607,,,72.0,54.0,72607,60.0,
77,77,-45,6,13,109,0,,,,,,,,,,,session,1616.520495100005,138.0,2.0,72.0,0.015326825676800004,5,0.3252004000241868,0.4586818999960087,1,0.6755552999675274,0.7756210999796167,1,0.33973669999977574,0.40638110000872985,,,66.0,51.0,72607,60.0,
-77,-77,-45,6,14,110,12,,,,,,,,,,,session,1623.857338599977,126.0,2.0,72.0,0.015326825676800004,2,0.9796679000137374,1.1128344000317156,7,0.5647095000022091,0.7980708999675699,1,0.30267119995551184,0.36839119996875525,,,57.0,63.0,72607,60.0,
-77,77,90,6,15,111,7,,,,,,,,,,,session,1631.6806632999796,162.0,2.0,72.0,0.015326825676800004,2,0.42663030000403523,0.5134066000464372,6,0.3071065999683924,0.45795269997324795,1,0.3242389000370167,0.4081029000226408,,,72.0,54.0,72607,60.0,
77,77,90,7,0,112,3,,,,,,,,,,,session,1639.8734977000277,126.0,2.0,72.0,0.015326825676800004,5,0.4817575000342913,0.5984256000374444,6,0.33069510001223534,0.46420149999903515,1,0.35249999997904524,0.4192025000229478,,,57.0,48.0,72607,60.0,
-77,-77,-45,7,1,113,12,,,,,,,,,,,session,1646.6420841999934,174.0,2.0,72.0,0.015326825676800004,2,1.196472999989055,1.3147855999995954,0,0.28137849998893216,0.3825052999891341,0,0.24211839999770746,0.36498429998755455,,,54.0,60.0,72607,60.0,
77,77,45,7,2,114,2,,,,,,,,,,,session,1654.9739763999823,156.0,2.0,72.0,0.015326825676800004,5,0.37213259999407455,0.4729111999622546,7,0.4231895999982953,0.5922351999906823,1,0.3340498000034131,0.43410419998690486,,,66.0,60.0,72607,60.0,
77,77,0,7,3,115,1,,,,,,,,,,,session,1663.0545092999819,132.0,2.0,72.0,0.015326825676800004,5,0.39136920002056286,0.4424890000373125,0,0.4829132000450045,0.5670798000064678,1,0.2829376000445336,0.3505472000106238,,,72.0,57.0,72607,60.0,
77,-77,45,7,4,116,10,,,,,,,,,,,session,1670.210668899992,156.0,2.0,72.0,0.015326825676800004,4,1.0346090999664739,1.1992621999816038,0,0.2746307999477722,0.35794689995236695,0,0.24629919999279082,0.32960980001371354,,,72.0,60.0,72607,60.0,
77,-77,0,7,5,117,9,,,,,,,,,,,session,1678.341663500003,126.0,2.0,72.0,0.015326825676800004,4,0.3255236999830231,0.39139939995948225,0,0.3091774000204168,0.4259067000239156,1,0.30023789999540895,0.38168960000621155,,,60.0,66.0,72607,60.0,
-77,77,0,7,6,118,5,,,,,,,,,,,session,1685.3059002999798,138.0,2.0,72.0,0.015326825676800004,3,1.5648314999998547,1.7147139000007883,1,0.3508478999719955,0.44908039999427274,0,0.25297889998182654,0.3546253999811597,,,60.0,60.0,72607,60.0,
77,77,-45,7,7,119,0,,,,,,,,,,,session,1693.562681899988,168.0,2.0,72.0,0.015326825676800004,5,0.3182439999654889,0.40171829995233566,1,0.47131090000038967,0.5544641999877058,1,0.3519191999803297,0.4807942999759689,,,63.0,51.0,72607,60.0,
77,77,-45,7,7,119,0,,,materials/instructions\12_break.png,1701.2048150000046,1712.8237928000162,0,11.499911100021563,11.616878000029828,0.01961209997534752,11.624955100007355,,,,,,,,,,,,,,,,,,,,72607,60.0,
-77,-77,0,7,8,120,13,,,,,,,,,,,session,1712.839444799989,132.0,2.0,72.0,0.015326825676800004,3,3.084956599981524,3.235069399990607,1,0.9228102999622934,1.022895400004927,0,0.499545999977272,0.6290408999775536,,,72.0,48.0,72607,60.0,
77,-77,90,7,9,121,11,,,,,,,,,,,session,1723.3876741999993,126.0,2.0,72.0,0.015326825676800004,5,0.7446605000295676,0.8782045000116341,0,0.24614719999954104,0.3961805999861099,0,0.28224410000257194,0.40134079998824745,,,69.0,72.0,72607,60.0,
-77,77,-45,7,10,122,4,,,,,,,,,,,session,1730.9751632999978,156.0,2.0,72.0,0.015326825676800004,2,0.5153338999953121,0.6169429000001401,7,1.0972521000076085,1.2467190999886952,0,0.5367264999658801,0.6536886999965645,,,69.0,48.0,72607,60.0,
77,-77,-45,7,11,123,8,,,,,,,,,,,session,1739.480297699978,132.0,2.0,72.0,0.015326825676800004,5,0.811832899984438,0.9235808999510482,1,1.0578652000403963,1.1731985000078566,0,0.580905899987556,0.7320272999932058,,,48.0,63.0,72607,60.0,
-77,77,45,7,12,124,6,,,,,,,,,,,session,1748.0080769999768,126.0,2.0,72.0,0.015326825676800004,2,0.31274219998158514,0.4630415000137873,7,0.4096004999591969,0.5602314999559894,1,0.287954900006298,0.35364749998552725,,,69.0,57.0,72607,60.0,
-77,-77,45,7,13,125,14,,,,,,,,,,,session,1755.0411942999926,144.0,2.0,72.0,0.015326825676800004,5,0.7329284999868833,0.8663524999865331,7,0.6646144000114873,0.8815746000036597,7,0.20875049999449402,0.4421981999767013,,,54.0,48.0,72607,60.0,
-77,77,90,7,14,126,7,,,,,,,,,,,session,1762.7670427000266,180.0,2.0,72.0,0.015326825676800004,2,1.0874377000145614,1.1704964999807999,6,0.3095146000268869,0.010882700036745518,1,1.1865305000101216,0.01073420001193881,,,69.0,60.0,72607,60.0,
-77,-77,90,7,15,127,15,,,,,,,,,,,session,1772.6802422999754,180.0,2.0,72.0,0.015326825676800004,3,0.7475345999700949,0.881978599994909,6,0.31284709996543825,0.41377609997289255,1,0.2874400000437163,0.3706279000034556,,,54.0,48.0,72607,60.0,
-77,-77,45,8,0,128,14,,,,,,,,,,,session,1780.5114716999815,126.0,2.0,72.0,0.015326825676800004,5,0.763011499948334,0.8796131999697536,0,0.09107279998715967,0.19227229995885864,0,0.01091360003920272,0.0964681000332348,,,60.0,72.0,72607,60.0,
77,77,-45,8,1,129,0,,,,,,,,,,,session,1787.458240900014,180.0,2.0,72.0,0.015326825676800004,5,0.5919198000337929,0.6578997999895364,1,0.6812174000078812,0.7462153999949805,1,1.7844208999886177,1.851002499985043,,,66.0,60.0,72607,60.0,
-77,77,45,8,2,130,6,,,,,,,,,,,session,1797.7247599000111,174.0,2.0,72.0,0.015326825676800004,2,2.2996539999730885,2.469813100004103,7,0.6627215000335127,0.7822480000322685,1,0.28711450000992045,0.3870790000073612,,,63.0,69.0,72607,60.0,
-77,77,90,8,3,131,7,,,,,,,,,,,session,1807.8994485000148,150.0,2.0,72.0,0.015326825676800004,2,0.357473999960348,0.4238679999834858,6,0.346715799998492,0.4297863999963738,1,0.33351279998896644,0.3992963999626227,,,51.0,54.0,72607,60.0,
77,77,0,8,4,132,1,,,,,,,,,,,session,1815.6397977999877,126.0,2.0,72.0,0.015326825676800004,5,0.26178510003956035,0.3615535999997519,0,0.527360400010366,0.6108825000119396,1,0.8695524000213481,0.9690556999994442,,,63.0,54.0,72607,60.0,
-77,-77,90,8,5,133,15,,,,,,,,,,,session,1823.0759794000187,156.0,2.0,72.0,0.015326825676800004,4,0.7288669999688864,0.8453646000125445,0,0.29768780001904815,0.4150892000179738,0,0.2657841000473127,0.3681290000095032,,,66.0,60.0,72607,60.0,
-77,-77,0,8,6,134,13,,,,,,,,,,,session,1830.8514132000273,150.0,2.0,72.0,0.015326825676800004,3,0.47449190000770614,0.624487399996724,7,0.2796036000363529,0.42883099999744445,0,0.35132139996858314,0.4513095999718644,,,66.0,51.0,72607,60.0,
77,77,45,8,7,135,2,,,,,,,,,,,session,1838.828129499976,132.0,2.0,72.0,0.015326825676800004,5,1.0636060999822803,1.1475937999784946,6,0.3152719999779947,0.5154234999790788,0,0.3540606999886222,0.45411029999377206,,,54.0,60.0,72607,60.0,
77,-77,45,8,8,136,10,,,,,,,,,,,session,1846.493996699981,144.0,2.0,72.0,0.015326825676800004,5,1.4642251000041142,1.5643190999981016,1,0.469579300028272,0.5365150000434369,0,0.6969455999787897,0.8319017000030726,,,72.0,63.0,72607,60.0,
-77,77,0,8,9,137,5,,,,,,,,,,,session,1855.561683500011,126.0,2.0,72.0,0.015326825676800004,2,0.5579397999681532,0.6579102999530733,0,0.2935587000101805,0.39364429999841377,1,0.30150669999420643,0.40152389998547733,,,63.0,66.0,72607,60.0,
-77,77,-45,8,10,138,4,,,,,,,,,,,session,1862.739750400011,126.0,2.0,72.0,0.015326825676800004,5,0.8935332999681123,0.9782496999832802,6,0.3988488999893889,0.5330441999831237,0,0.8527238999959081,0.9861600000294857,,,60.0,54.0,72607,60.0,
77,-77,-45,8,11,139,8,,,,,,,,,,,session,1870.6793676000088,156.0,2.0,72.0,0.015326825676800004,2,3.470242400013376,3.583205600036308,0,0.29473580000922084,0.3973862999700941,0,0.697591400006786,0.7975738000241108,,,57.0,69.0,72607,60.0,
77,-77,-45,8,11,139,8,,,materials/instructions\12_break.png,1881.685223700013,1909.2224678000202,0,27.401661499985494,27.535131699987687,0.023402899969369173,27.543201299966313,,,,,,,,,,,,,,,,,,,,72607,60.0,
77,77,90,8,12,140,3,,,,,,,,,,,session,1909.2378570000292,180.0,2.0,72.0,0.015326825676800004,5,1.668951100029517,1.75022370001534,0,0.011521200009156018,0.013485100003890693,0,0.20360760000767186,0.28579069999977946,,,69.0,57.0,72607,60.0,
-77,-77,-45,8,13,141,12,,,,,,,,,,,session,1917.8485282000038,150.0,2.0,72.0,0.015326825676800004,3,0.3856131999637,0.551473299972713,1,0.5801087000290863,0.7122417999780737,1,0.2859059000038542,0.41814100003102794,,,48.0,63.0,72607,60.0,
77,-77,90,8,14,142,11,,,,,,,,,,,session,1925.8898201999837,168.0,2.0,72.0,0.015326825676800004,4,0.3748609999893233,0.4742040999699384,6,0.28099090000614524,0.3977720000548288,1,0.2886117000016384,0.3721592000219971,,,66.0,60.0,72607,60.0,
77,-77,0,8,15,143,9,,,,,,,,,,,session,1933.4767530999961,150.0,2.0,72.0,0.015326825676800004,2,0.4474065999966115,0.5789278000011109,0,0.16343090002192184,0.2810775000252761,0,0.0109948999597691,0.01293129997793585,,,51.0,57.0,72607,60.0,
-77,77,0,9,0,144,5,,,,,,,,,,,session,1940.0923069000128,126.0,2.0,72.0,0.015326825676800004,2,0.4239439999801107,0.5365840999875218,0,0.2776919999741949,0.3795695999870077,0,0.2532545999856666,0.35540299996500835,,,69.0,66.0,72607,60.0,
77,-77,0,9,1,145,9,,,,,,,,,,,session,1947.7105133000296,144.0,2.0,72.0,0.015326825676800004,5,0.7569421999505721,0.8738549999543466,6,0.5599403000087477,0.6610495999921113,0,0.46746239997446537,0.6036908999667503,,,63.0,66.0,72607,60.0,
77,77,90,9,2,146,3,,,,,,,,,,,session,1955.8804357000045,180.0,2.0,72.0,0.015326825676800004,5,1.3637411000090651,1.4637370000127703,1,0.5300578999449499,0.6636561999912374,0,0.32329159998334944,0.4908254999900237,,,51.0,60.0,72607,60.0,
-77,-77,45,9,3,147,14,,,,,,,,,,,session,1964.8055576999905,126.0,2.0,72.0,0.015326825676800004,3,0.3628648999729194,0.4968401999794878,6,0.031395900005009025,0.18472339998697862,0,0.7647979999892414,0.8647590999607928,,,63.0,72.0,72607,60.0,
-77,-77,90,9,4,148,15,,,,,,,,,,,session,1972.4425591999898,144.0,2.0,72.0,0.015326825676800004,5,1.331235799996648,1.4312979999813251,7,0.7796423000399955,0.8961493000388145,1,0.3534759000176564,0.4368957999977283,,,54.0,54.0,72607,60.0,
77,-77,90,9,5,149,11,,,,,,,,,,,session,1980.8459576999885,168.0,2.0,72.0,0.015326825676800004,2,0.8803623999701813,1.0336876999936067,0,0.27719559997785836,0.4558355999761261,0,0.3279471999849193,0.5098460000008345,,,60.0,54.0,72607,60.0,
77,-77,45,9,6,150,10,,,,,,,,,,,session,1989.0424559999956,174.0,2.0,72.0,0.015326825676800004,5,1.105109199997969,1.20623179996619,0,0.509778700012248,0.6108818000066094,0,0.41676599998027086,0.5502731999731623,,,63.0,66.0,72607,60.0,
77,77,-45,9,7,151,0,,,,,,,,,,,session,1997.9093795000226,156.0,2.0,72.0,0.015326825676800004,5,0.3055889999959618,0.3711827000370249,1,0.5284057999961078,0.6450546000269242,1,0.36982239998178557,0.4707634999649599,,,54.0,51.0,72607,60.0,
-77,-77,0,9,8,152,13,,,,,,,,,,,session,2005.1824951000162,138.0,2.0,72.0,0.015326825676800004,5,1.9269267999916337,2.0073215999873355,6,0.29168949997983873,0.4250104999518953,0,3.3392914999858476,3.4727311999886297,,,57.0,69.0,72607,60.0,
-77,-77,-45,9,9,153,12,,,,,,,,,,,session,2017.2609938000096,168.0,2.0,72.0,0.015326825676800004,3,1.6664715999504551,1.8332339999615215,1,0.3466146999853663,0.4291300000040792,0,0.5178463000338525,0.68574060004903,,,63.0,48.0,72607,60.0,
-77,77,-45,9,10,154,4,,,,,,,,,,,session,2026.315528600011,162.0,2.0,72.0,0.015326825676800004,2,0.3970363000407815,0.508219100011047,1,0.6427422999986447,0.7482586000114679,1,0.8859104999573901,1.0375143999699503,,,60.0,72.0,72607,60.0,
-77,77,90,9,11,155,7,,,,,,,,,,,session,2035.0434884999995,180.0,2.0,72.0,0.015326825676800004,5,0.6934378000441939,0.86036430002423,1,0.6021720999851823,0.751243099977728,0,0.5392666999832727,0.6726939000072889,,,48.0,48.0,72607,60.0,
-77,77,45,9,12,156,6,,,,,,,,,,,session,2043.3769532000297,168.0,2.0,72.0,0.015326825676800004,4,0.5618576999986544,0.679759600025136,6,0.32999409997137263,0.4466901000123471,0,0.3861629000166431,0.5193915999843739,,,72.0,66.0,72607,60.0,
77,77,45,9,13,157,2,,,,,,,,,,,session,2051.5671605999814,168.0,2.0,72.0,0.015326825676800004,5,0.9365456000086851,1.0365685999859124,7,0.806977599975653,0.9239417999633588,6,0.7329111999715678,0.8505911999964155,,,66.0,63.0,72607,60.0,
77,-77,-45,9,14,158,8,,,,,,,,,,,session,2061.409161299991,180.0,2.0,72.0,0.015326825676800004,4,2.5816342000034638,2.6654285000404343,1,2.0292019000044093,2.1635568999918178,0,1.3008201000047848,1.4674964000005275,,,72.0,72.0,72607,60.0,
77,77,0,9,15,159,1,,,,,,,,,,,session,2074.5556194999954,150.0,2.0,72.0,0.015326825676800004,5,1.2220569000346586,1.3388646999956109,7,0.6445229999953881,0.8595312000252306,0,0.30209920002380386,0.4188232999877073,,,57.0,63.0,72607,60.0,
77,77,0,9,15,159,1,,,materials/instructions\12_break.png,2083.6761292999727,2111.85986289999,0,27.98132669995539,28.18157059996156,0.017448100028559566,28.189574000018183,,,,,,,,,,,,,,,,,,,,72607,60.0,
77,-77,-45,10,0,160,8,,,,,,,,,,,session,2111.8749559000134,126.0,2.0,72.0,0.015326825676800004,2,1.715742299973499,1.816214199992828,1,0.5584678000304848,0.5623501000227407,0,0.33008579997112975,0.4343471999745816,,,72.0,72.0,72607,60.0,
-77,-77,45,10,1,161,14,,,,,,,,,,,session,2120.661754300003,180.0,2.0,72.0,0.015326825676800004,4,2.678423399978783,2.7951526999822818,6,0.4149567999993451,0.5641423999913968,0,0.3537775999866426,0.4538792999810539,,,66.0,66.0,72607,60.0,
-77,77,45,10,2,162,6,,,,,,,,,,,session,2131.128878700023,150.0,2.0,72.0,0.015326825676800004,2,1.0450913000386208,1.1284279000246897,7,0.3598150999750942,0.42654549999861047,0,0.43345020001288503,0.46655999997165054,,,72.0,48.0,72607,60.0,
-77,77,90,10,3,163,7,,,,,,,,,,,session,2139.0847092000186,156.0,2.0,72.0,0.015326825676800004,3,0.9203757999930531,1.0570255999919027,0,0.3792900000116788,0.5136997000081465,0,0.7344459000159986,0.8478429000242613,,,54.0,51.0,72607,60.0,
77,-77,45,10,4,164,10,,,,,,,,,,,session,2147.957570999977,138.0,2.0,72.0,0.015326825676800004,5,0.8452074999804609,0.9109135000035167,6,0.5011409999569878,0.6512881999951787,0,0.35045139997964725,0.48396719997981563,,,51.0,66.0,72607,60.0,
77,77,-45,10,5,165,0,,,,,,,,,,,session,2155.697276699997,144.0,2.0,72.0,0.015326825676800004,5,0.597719099954702,0.68029279995244,1,1.4137129999580793,1.5154897999600507,1,1.8838120000436902,1.9660931000253186,,,69.0,51.0,72607,60.0,
77,77,90,10,6,166,3,,,,,,,,,,,session,2165.71191990003,180.0,2.0,72.0,0.015326825676800004,5,1.0787198999896646,1.1289059999980964,6,0.3807678999728523,0.4474492999725044,1,0.5704049000050873,0.6370124000241049,,,51.0,54.0,72607,60.0,
-77,77,-45,10,7,167,4,,,,,,,,,,,session,2174.127100499987,150.0,2.0,72.0,0.015326825676800004,4,0.830728100030683,0.9473788000177592,0,0.7478544999612495,0.8815711999777704,0,0.3394568000221625,0.41991400002734736,,,51.0,63.0,72607,60.0,
77,77,45,10,8,168,2,,,,,,,,,,,session,2182.2159856000217,132.0,2.0,72.0,0.015326825676800004,5,0.25397980003617704,0.3593504999880679,7,0.6219217000179924,0.7192499000229873,1,0.27222509996499866,0.35575809999136254,,,48.0,60.0,72607,60.0,
77,77,0,10,9,169,1,,,,,,,,,,,session,2189.3252632999793,150.0,2.0,72.0,0.015326825676800004,5,0.9449713000212796,1.0284650000394322,1,0.32894009997835383,0.4121490999823436,0,0.33480269997380674,0.4348591999732889,,,72.0,57.0,72607,60.0,
77,-77,90,10,10,170,11,,,,,,,,,,,session,2197.2948242999846,150.0,2.0,72.0,0.015326825676800004,2,1.0860919000115246,1.171371900010854,6,0.34782559995073825,0.43041429994627833,0,1.3596099999849685,1.4878883000346832,,,63.0,72.0,72607,60.0,
77,-77,0,10,11,171,9,,,,,,,,,,,session,2206.589323299995,138.0,2.0,72.0,0.015326825676800004,4,1.1370255000074394,1.2194366999901831,7,0.9393624999793246,1.0718186000012793,0,0.7982514000032097,0.9337524000438862,,,69.0,66.0,72607,60.0,
-77,-77,0,10,12,172,13,,,,,,,,,,,session,2216.461469599977,174.0,2.0,72.0,0.015326825676800004,5,0.8817441000137478,0.9817847000085749,6,0.381707499967888,0.532649600005243,0,0.5547865999978967,0.6722323999856599,,,66.0,48.0,72607,60.0,
-77,-77,90,10,13,173,15,,,,,,,,,,,session,2224.884372200002,174.0,2.0,72.0,0.015326825676800004,2,0.7515371000044979,0.9020084000076167,1,0.3942649999517016,0.5277458999771625,0,0.568172900006175,0.7182011000113562,,,63.0,60.0,72607,60.0,
-77,77,0,10,14,174,5,,,,,,,,,,,session,2233.4780618000077,174.0,2.0,72.0,0.015326825676800004,5,0.8160753999836743,0.8831957000074908,1,0.42801289999624714,0.5456309000146575,0,0.6372376999934204,0.8041300000040792,,,60.0,60.0,72607,60.0,
-77,-77,-45,10,15,175,12,,,,,,,,,,,session,2242.061581999995,150.0,2.0,72.0,0.015326825676800004,4,0.7436673000338487,0.8949420999852009,6,0.46115470002405345,0.610173900029622,0,0.5007623999845237,0.6501907000201754,,,69.0,69.0,72607,60.0,
77,-77,45,11,0,176,10,,,,,,,,,,,session,2250.452846799977,156.0,2.0,72.0,0.015326825676800004,4,0.4217681000009179,0.4893895999994129,7,0.9371898000244983,1.10382820002269,1,0.32025339995743707,0.43587389995809644,,,72.0,54.0,72607,60.0,
77,-77,90,11,1,177,11,,,,,,,,,,,session,2259.346373600012,126.0,2.0,72.0,0.015326825676800004,4,0.6460749999969266,0.7962483000010252,7,0.5459386000293307,0.698341800016351,1,0.33751420001499355,0.4375731000327505,,,57.0,57.0,72607,60.0,
77,77,45,11,2,178,2,,,,,,,,,,,session,2266.7319749000017,162.0,2.0,72.0,0.015326825676800004,5,1.0319128000410274,1.098378100025002,7,0.5372277999995276,0.6699209000216797,1,0.7489998000091873,0.8610209999606013,,,54.0,48.0,72607,60.0,
-77,77,0,11,3,179,5,,,,,,,,,,,session,2275.2416202999884,156.0,2.0,72.0,0.015326825676800004,2,1.0458486000425182,1.197065400017891,0,0.46429420000640675,0.5969140999950469,1,0.41665170004125684,0.5500491000129841,,,69.0,48.0,72607,60.0,
-77,77,0,11,3,179,5,,,materials/instructions\12_break.png,2283.653541699983,2302.9591285000206,0,19.18701689998852,19.303567599970847,0.02536650002002716,19.311199699994177,,,,,,,,,,,,,,,,,,,,72607,60.0,
-77,77,-45,11,4,180,4,,,,,,,,,,,session,2302.975161599985,174.0,2.0,72.0,0.015326825676800004,3,1.3229466999764554,1.4889345999690704,0,0.4179174999590032,0.5681121000088751,0,3.391561000025831,3.5228113000048324,,,66.0,48.0,72607,60.0,
77,-77,0,11,5,181,9,,,,,,,,,,,session,2314.8020241999766,126.0,2.0,72.0,0.015326825676800004,5,1.3029717999743298,1.43627559999004,1,0.8968415000126697,1.0106900000246242,0,0.3522480999818072,0.45220709999557585,,,51.0,72.0,72607,60.0,
77,77,90,11,6,182,3,,,,,,,,,,,session,2323.660529099987,144.0,2.0,72.0,0.015326825676800004,3,0.8602747999830171,1.0258772999513894,0,0.32819109997944906,0.41056079999543726,0,0.3868418999481946,0.48693659994751215,,,63.0,72.0,72607,60.0,
-77,-77,0,11,7,183,13,,,,,,,,,,,session,2331.680524000025,150.0,2.0,72.0,0.015326825676800004,2,0.7151294000213966,0.8145840999786742,6,0.461572400003206,0.5801987999584526,1,0.3471131999976933,0.4486258000251837,,,69.0,66.0,72607,60.0,
77,77,-45,11,8,184,0,,,,,,,,,,,session,2339.7150617000298,132.0,2.0,72.0,0.015326825676800004,5,0.3369962000288069,0.43914650002261624,1,0.712668800028041,0.845877300016582,6,0.36747890000697225,0.45265559997642413,,,48.0,48.0,72607,60.0,
77,-77,-45,11,9,185,8,,,,,,,,,,,session,2347.1831155000255,150.0,2.0,72.0,0.015326825676800004,3,0.6797962000127882,0.8628001000033692,1,0.31269529997371137,0.47972000000299886,0,0.2862779999850318,0.43638169998303056,,,51.0,51.0,72607,60.0,
-77,77,90,11,10,186,7,,,,,,,,,,,session,2354.61456180003,144.0,2.0,72.0,0.015326825676800004,5,0.8781369000207633,0.9927483999636024,6,0.1333458000444807,0.23502730001928285,0,0.6922858000034466,0.8643335999804549,,,54.0,57.0,72607,60.0,
-77,-77,90,11,11,187,15,,,,,,,,,,,session,2362.413575500017,126.0,2.0,72.0,0.015326825676800004,5,1.051050000009127,1.184479099989403,7,0.8958141999901272,0.9779615000006743,0,0.5153349000029266,0.6813581000315025,,,63.0,48.0,72607,60.0,
-77,77,45,11,12,188,6,,,,,,,,,,,session,2371.010046100011,126.0,2.0,72.0,0.015326825676800004,2,1.0782889999682084,1.2119962999713607,0,0.4442413000506349,0.6444011999992654,1,0.5003163000219502,0.6496803000336513,,,51.0,63.0,72607,60.0,
77,77,0,11,13,189,1,,,,,,,,,,,session,2378.9647016000235,150.0,2.0,72.0,0.015326825676800004,5,0.29569190001348034,0.37900170002831146,0,0.37171000003581867,0.48334320000139996,1,0.3117369000101462,0.3653368000523187,,,54.0,63.0,72607,60.0,
-77,-77,45,11,14,190,14,,,,,,,,,,,session,2386.1306590000167,132.0,2.0,72.0,0.015326825676800004,2,0.8822635000105947,0.9973560000071302,6,0.17657980002695695,0.30670820001978427,0,0.3425107999937609,0.4905618000193499,,,60.0,69.0,72607,60.0,
-77,-77,-45,11,15,191,12,,,,,,,,,,,session,2393.7293889999855,180.0,2.0,72.0,0.015326825676800004,3,1.5164810999995098,1.6316542000276968,1,0.6152405999600887,0.7660302000003867,0,0.26711470005102456,0.40238340001087636,,,51.0,63.0,72607,60.0,
-77,-77,0,12,0,192,13,,,,,,,,,,,session,2402.8711249000044,168.0,2.0,72.0,0.015326825676800004,3,0.30567460000747815,0.48455679998733103,7,0.8102671999949962,0.8935352000407875,0,2.8708496000035666,3.0036260999622755,,,63.0,60.0,72607,60.0,
-77,-77,45,12,1,193,14,,,,,,,,,,,session,2413.8129128,180.0,2.0,72.0,0.015326825676800004,3,0.2936199000105262,0.42821789998561144,7,0.862210099992808,0.9288441000389867,0,1.4439896999974735,1.528020599973388,,,69.0,66.0,72607,60.0,
77,77,90,12,2,194,3,,,,,,,,,,,session,2423.386934600014,168.0,2.0,72.0,0.015326825676800004,5,1.0930670999805443,1.1762600999791175,6,0.01106749998871237,0.01292990002548322,0,0.3439908000291325,0.4142427999759093,,,54.0,57.0,72607,60.0,
-77,77,90,12,3,195,7,,,,,,,,,,,session,2431.2483696999843,150.0,2.0,72.0,0.015326825676800004,2,0.3513020999962464,0.4847382999723777,6,0.011010699963662773,0.01294169999891892,1,0.6637881000060588,0.7655122000142001,,,60.0,63.0,72607,60.0,
77,-77,45,12,4,196,10,,,,,,,,,,,session,2438.5137657999876,126.0,2.0,72.0,0.015326825676800004,4,0.9662676000152715,1.1161107000079937,0,0.011013099981937557,0.012931899982504547,0,0.011920100019779056,0.013828800001647323,,,48.0,66.0,72607,60.0,
77,-77,0,12,5,197,9,,,,,,,,,,,session,2445.0947148000123,138.0,2.0,72.0,0.015326825676800004,5,0.6982376000378281,0.8159735000226647,0,0.010959199978969991,0.012876699969638139,0,0.01090630004182458,0.012859500013291836,,,48.0,63.0,72607,60.0,
77,-77,90,12,6,198,11,,,,,,,,,,,session,2451.560669999977,168.0,2.0,72.0,0.015326825676800004,3,1.0447046000044793,1.2281784000224434,1,0.3455078999977559,0.46224749996326864,0,0.01117259997408837,0.013058500015176833,,,60.0,48.0,72607,60.0,
-77,-77,90,12,7,199,15,,,,,,,,,,,session,2459.4409575000172,132.0,2.0,72.0,0.015326825676800004,5,0.42981519998284057,0.5480720999767072,1,0.011212599987629801,0.013052699971012771,0,1.7037174999713898,1.9038370999624021,,,69.0,54.0,72607,60.0,
-77,-77,90,12,7,199,15,,,materials/instructions\12_break.png,2467.627037499973,2490.1511239000247,0,22.35309499996947,22.521807899989653,0.02552209998248145,22.52763910003705,,,,,,,,,,,,,,,,,,,,72607,60.0,
-77,77,0,12,8,200,5,,,,,,,,,,,session,2490.164295100025,138.0,2.0,72.0,0.015326825676800004,5,1.0737769000115804,1.1403936999849975,0,0.4875700999982655,0.5618821000098251,0,0.011007699999026954,0.013491199992131442,,,60.0,48.0,72607,60.0,
-77,-77,-45,12,9,201,12,,,,,,,,,,,session,2497.4413875999744,168.0,2.0,72.0,0.015326825676800004,5,4.575942200026475,4.676014700031374,0,0.011938599986024201,0.014082000008784235,0,0.010948300012387335,0.01285890000872314,,,63.0,72.0,72607,60.0,
77,77,45,12,10,202,2,,,,,,,,,,,session,2508.658881900017,162.0,2.0,72.0,0.015326825676800004,3,0.5120761999860406,0.6788949000183493,0,0.013033199997153133,0.014951299992389977,0,0.7855466000037268,0.010876200045458972,,,48.0,57.0,72607,60.0,
77,-77,-45,12,11,203,8,,,,,,,,,,,session,2516.0394158000126,156.0,2.0,72.0,0.015326825676800004,5,0.5600919999997132,0.677399999985937,6,0.010947000002488494,0.01289730001008138,0,0.010841699957381934,0.012882599956355989,,,51.0,63.0,72607,60.0,
77,77,0,12,12,204,1,,,,,,,,,,,session,2523.3253073000233,168.0,2.0,72.0,0.015326825676800004,5,1.0810352000407875,1.2293715000269003,0,0.024818999983835965,0.026756499952170998,1,1.5706470000441186,1.686716600030195,,,63.0,72.0,72607,60.0,
77,77,-45,12,13,205,0,,,,,,,,,,,session,2532.7846775000216,132.0,2.0,72.0,0.015326825676800004,5,0.39763709995895624,0.5147228999994695,1,0.352966699982062,0.49326550000114366,1,0.010759199969470501,0.07848690001992509,,,57.0,63.0,72607,60.0,
-77,77,45,12,14,206,6,,,,,,,,,,,session,2539.5102701000287,162.0,2.0,72.0,0.015326825676800004,3,0.5309301000088453,0.7139389000367373,1,0.560884399979841,0.7096663999836892,1,0.26651200000196695,0.36664349999045953,,,72.0,69.0,72607,60.0,
-77,77,-45,12,15,207,4,,,,,,,,,,,session,2548.062791400007,138.0,2.0,72.0,0.015326825676800004,5,1.4122182999853976,1.5456758000073023,0,0.011337000003550202,0.1463639999856241,0,0.010811499960254878,0.012890099955257028,,,54.0,72.0,72607,60.0,
77,77,45,13,0,208,2,,,,,,,,,,,session,2555.611978799978,132.0,2.0,72.0,0.015326825676800004,5,1.4167188000283204,1.522381100046914,1,0.3854118000017479,0.5852941999910399,0,0.010952399985399097,0.20101229997817427,,,48.0,54.0,72607,60.0,
77,-77,90,13,1,209,11,,,,,,,,,,,session,2563.282384900027,126.0,2.0,72.0,0.015326825676800004,5,0.7312489000032656,0.9315435999887995,7,0.3617826999980025,0.47849870001664385,0,0.011800499982200563,0.18232480000006035,,,54.0,60.0,72607,60.0,
-77,77,45,13,2,210,6,,,,,,,,,,,session,2570.3287481999723,150.0,2.0,72.0,0.015326825676800004,5,0.5970039999810979,0.6970517000299878,7,0.4970828000223264,0.5631865999894217,1,0.010708299989346415,0.10663339996244758,,,66.0,54.0,72607,60.0,
-77,77,0,13,3,211,5,,,,,,,,,,,session,2577.636599700025,150.0,2.0,72.0,0.015326825676800004,2,0.4968366000102833,0.6638175999978557,0,0.011939700052607805,0.013864200038369745,1,0.09812350000720471,0.2802304000360891,,,72.0,63.0,72607,60.0,
-77,77,-45,13,4,212,4,,,,,,,,,,,session,2584.811160299985,150.0,2.0,72.0,0.015326825676800004,4,1.0377809000201523,1.2050121999927796,6,0.2792909999843687,0.36153850000118837,0,0.011259200051426888,0.013214000035077333,,,63.0,48.0,72607,60.0,
77,-77,45,13,5,213,10,,,,,,,,,,,session,2592.1922738000285,150.0,2.0,72.0,0.015326825676800004,3,1.1039233999908902,1.2688938999781385,1,0.46409040002617985,0.5808503999724053,0,0.6026629999978468,0.7027524000150152,,,57.0,63.0,72607,60.0,
77,-77,-45,13,6,214,8,,,,,,,,,,,session,2600.6853537000134,168.0,2.0,72.0,0.015326825676800004,4,0.45336980000138283,0.5204482999979518,1,0.6119621000252664,0.7245177000295371,1,0.5779775999835692,0.6608150999527425,,,48.0,69.0,72607,60.0,
77,77,0,13,7,215,1,,,,,,,,,,,session,2608.9316208999953,144.0,2.0,72.0,0.015326825676800004,5,0.7737457000184804,0.8907258000108413,6,0.3447341999853961,0.46146999998018146,0,0.7505985999596305,0.9014662000117823,,,66.0,48.0,72607,60.0,
-77,-77,0,13,8,216,13,,,,,,,,,,,session,2616.948626300029,138.0,2.0,72.0,0.015326825676800004,3,0.6085861999890767,0.8256741000222974,7,0.3956000999896787,0.47886159998597577,0,0.4183284000027925,0.5517410000320524,,,69.0,51.0,72607,60.0,
77,-77,0,13,9,217,9,,,,,,,,,,,session,2624.5544610000215,162.0,2.0,72.0,0.015326825676800004,5,0.5512672000331804,0.7050996000180021,1,0.764737400051672,0.8980837000417523,0,0.4216495000291616,0.5694469999871217,,,69.0,54.0,72607,60.0,
-77,77,90,13,10,218,7,,,,,,,,,,,session,2633.495239400014,150.0,2.0,72.0,0.015326825676800004,2,1.1120207999483682,1.3283688999945298,7,0.6628327000071295,0.7129070000373758,0,0.7719295000424609,0.8879016000428237,,,69.0,66.0,72607,60.0,
-77,-77,45,13,11,219,14,,,,,,,,,,,session,2642.617134100001,132.0,2.0,72.0,0.015326825676800004,5,1.2131464999984019,1.3478100000065751,6,0.3927686999668367,0.47550829994725063,0,0.5912408999865875,0.7245886999880895,,,57.0,48.0,72607,60.0,
-77,-77,45,13,11,219,14,,,materials/instructions\12_break.png,2650.64549179998,2674.023655899975,0,23.242845899949316,23.376194899959955,0.01896750001469627,23.38763770001242,,,,,,,,,,,,,,,,,,,,72607,60.0,
77,77,-45,13,12,220,0,,,,,,,,,,,session,2674.0433534000185,138.0,2.0,72.0,0.015326825676800004,5,0.448488800029736,0.5303149000392295,1,0.5784535999991931,0.7122096000239253,1,0.26661029999377206,0.38553259999025613,,,51.0,72.0,72607,60.0,
-77,-77,-45,13,13,221,12,,,,,,,,,,,session,2681.4825153999845,138.0,2.0,72.0,0.015326825676800004,4,0.9481831999728456,1.0484000999713317,0,0.3314335999893956,0.4315408999682404,0,0.011667200014926493,0.013611100031994283,,,51.0,57.0,72607,60.0,
-77,-77,90,13,14,222,15,,,,,,,,,,,session,2688.5108548999997,162.0,2.0,72.0,0.015326825676800004,5,1.5675947000272572,1.6562926000333391,6,0.011592700029723346,0.013642200035974383,0,0.010710400005336851,0.16786680003860965,,,69.0,72.0,72607,60.0,
77,77,90,13,15,223,3,,,,,,,,,,,session,2696.863609799999,150.0,2.0,72.0,0.015326825676800004,2,0.7570116000133567,0.9738902000244707,0,0.011096899979747832,0.06476410001050681,0,0.32079170003999025,0.48664640000788495,,,72.0,48.0,72607,60.0,
77,77,45,14,0,224,2,,,,,,,,,,,session,2704.3317145999754,156.0,2.0,72.0,0.015326825676800004,3,0.43424859998049214,0.6842213000054471,7,0.33236780000152066,0.4500104999751784,0,0.41507019998971373,0.533081499976106,,,60.0,54.0,72607,60.0,
-77,77,90,14,1,225,7,,,,,,,,,,,session,2711.937197500025,174.0,2.0,72.0,0.015326825676800004,5,0.5226018999819644,0.6348319999524392,1,0.26074950001202524,0.4116059999796562,0,0.2678191000013612,0.3859011000022292,,,54.0,51.0,72607,60.0,
-77,-77,-45,14,2,226,12,,,,,,,,,,,session,2719.797172199993,126.0,2.0,72.0,0.015326825676800004,5,0.5540029000258073,0.6698053000145592,6,0.26295029994798824,0.395482899970375,0,0.2696062999893911,0.4211559999966994,,,57.0,51.0,72607,60.0,
-77,77,-45,14,3,227,4,,,,,,,,,,,session,2726.6153076000046,174.0,2.0,72.0,0.015326825676800004,2,0.44750950002344325,0.6309565000119619,7,0.32953679998172447,0.42967549996683374,0,0.24814229999901727,0.3649576000170782,,,63.0,57.0,72607,60.0,
77,-77,0,14,4,228,9,,,,,,,,,,,session,2734.40483840002,132.0,2.0,72.0,0.015326825676800004,4,0.5886641999823041,0.7386343000107445,6,0.2621583000291139,0.41210549999959767,0,0.3000770000508055,0.4499680000008084,,,54.0,69.0,72607,60.0,
77,-77,45,14,5,229,10,,,,,,,,,,,session,2741.8961921000155,180.0,2.0,72.0,0.015326825676800004,2,0.40820519998669624,0.5741762000252493,6,0.05865540000377223,0.19348560000071302,0,0.7198165999725461,0.8383070999989286,,,69.0,72.0,72607,60.0,
-77,-77,90,14,6,230,15,,,,,,,,,,,session,2750.302327000012,144.0,2.0,72.0,0.015326825676800004,5,0.6489654000033624,0.7362597999745049,7,0.4258278000052087,0.5425275000161491,0,0.5876474000397138,0.6712270000134595,,,66.0,57.0,72607,60.0,
77,-77,90,14,7,231,11,,,,,,,,,,,session,2758.1569038999733,168.0,2.0,72.0,0.015326825676800004,5,0.3921224999940023,0.5053732999949716,1,0.8770151000353508,1.027235199988354,0,0.6671307000215165,0.8663696000003256,,,51.0,54.0,72607,60.0,
77,77,0,14,8,232,1,,,,,,,,,,,session,2767.3169680000283,150.0,2.0,72.0,0.015326825676800004,5,0.3294313999940641,0.42913380003301427,0,0.4989159999531694,0.6658908999525011,1,0.28192089998628944,0.41671079996740445,,,54.0,72.0,72607,60.0,
-77,77,0,14,9,233,5,,,,,,,,,,,session,2774.886747599987,126.0,2.0,72.0,0.015326825676800004,4,0.780579200014472,0.8983468000078574,7,0.2302002999931574,0.4304215000011027,0,0.2254566999617964,0.39742369996383786,,,57.0,66.0,72607,60.0,
-77,77,45,14,10,234,6,,,,,,,,,,,session,2782.216668399982,132.0,2.0,72.0,0.015326825676800004,2,0.2560397999477573,0.38973289995919913,7,0.4953370000002906,0.6775684999884106,1,0.30131389998132363,0.4327927000122145,,,69.0,66.0,72607,60.0,
77,77,-45,14,11,235,0,,,,,,,,,,,session,2789.9976959999767,180.0,2.0,72.0,0.015326825676800004,3,0.5976960000116378,0.7810941000352614,6,0.18044010002631694,0.3315293000196107,0,0.4532129999715835,0.5367129999794997,,,48.0,54.0,72607,60.0,
77,-77,-45,14,12,236,8,,,,,,,,,,,session,2797.7855450999923,174.0,2.0,72.0,0.015326825676800004,5,0.7271023000357673,0.8772207000292838,1,0.3355568000115454,0.5077372000087053,0,0.2986877999501303,0.4476103999768384,,,57.0,66.0,72607,60.0,
77,77,90,14,13,237,3,,,,,,,,,,,session,2806.0506699000252,150.0,2.0,72.0,0.015326825676800004,5,0.33547839999664575,0.4687352000037208,6,0.3183895000256598,0.43435280001722276,1,0.2538125999853946,0.35427060001529753,,,51.0,48.0,72607,60.0,
-77,-77,45,14,14,238,14,,,,,,,,,,,session,2812.897965400014,168.0,2.0,72.0,0.015326825676800004,5,0.7459273000131361,0.8459578999900259,7,0.012007699988316745,0.013892800023313612,0,0.536525100003928,0.6707900000037625,,,69.0,69.0,72607,60.0,
-77,-77,0,14,15,239,13,,,,,,,,,,,session,2820.969912200002,162.0,2.0,72.0,0.015326825676800004,2,0.3220063999760896,0.49150609999196604,6,0.3305269000120461,0.4635529000079259,0,0.3857760999817401,0.45262220001313835,,,69.0,60.0,72607,60.0,
-77,-77,0,14,15,239,13,,,materials/instructions\12_break.png,2828.719754800026,2837.5309393000207,0,8.660112800018396,8.809159600001294,0.02426430000923574,8.817047799995635,,,,,,,,,,,,,,,,,,,,72607,60.0,
77,-77,90,15,0,240,11,,,,,,,,,,,session,2837.54702659999,168.0,2.0,72.0,0.015326825676800004,3,0.587330500013195,0.7372886000084691,1,0.3313013999722898,0.4313284999807365,0,0.2517403999809176,0.35205749998567626,,,69.0,72.0,72607,60.0,
-77,77,45,15,1,241,6,,,,,,,,,,,session,2845.6752798000234,174.0,2.0,72.0,0.015326825676800004,2,2.9242216999991797,3.006203699973412,7,0.8126170999603346,0.9423650999669917,1,0.28387370001291856,0.39840409997850657,,,72.0,69.0,72607,60.0,
77,77,0,15,2,242,1,,,,,,,,,,,session,2857.263960900018,168.0,2.0,72.0,0.015326825676800004,5,0.2787745000096038,0.3789747999981046,0,0.22811929997988045,0.34523699997225776,1,0.010912999976426363,0.08498270000563934,,,63.0,72.0,72607,60.0,
-77,-77,0,15,3,243,13,,,,,,,,,,,session,2864.5679277000017,168.0,2.0,72.0,0.015326825676800004,2,0.8298705000197515,0.9300115000223741,0,0.011048700020182878,0.012946899980306625,0,0.011220600048545748,0.01340100000379607,,,63.0,69.0,72607,60.0,
-77,-77,90,15,4,244,15,,,,,,,,,,,session,2871.9971184000024,150.0,2.0,72.0,0.015326825676800004,4,0.7204327000072226,0.8371607000008225,7,0.3579973999876529,0.3917326999944635,0,0.011079200019594282,0.012960100022610277,,,69.0,63.0,72607,60.0,
-77,77,-45,15,5,245,4,,,,,,,,,,,session,2879.394056799996,156.0,2.0,72.0,0.015326825676800004,5,0.9313043000292964,1.0321632000268437,6,0.7311638999963179,0.8311673999996856,0,0.01079199998639524,0.01270630001090467,,,60.0,63.0,72607,60.0,
-77,77,90,15,6,246,7,,,,,,,,,,,session,2887.364836700028,174.0,2.0,72.0,0.015326825676800004,2,0.3912271999870427,0.5580630999756977,6,0.3197695999988355,0.42484049999620765,1,0.24585290002869442,0.3751106000272557,,,48.0,51.0,72607,60.0,
77,77,45,15,7,247,2,,,,,,,,,,,session,2894.7135338999797,144.0,2.0,72.0,0.015326825676800004,5,0.3666010999586433,0.5180994999827817,7,0.45937690004939213,0.576097600045614,1,0.011096100031863898,0.013004500011447817,,,69.0,66.0,72607,60.0,
-77,77,0,15,8,248,5,,,,,,,,,,,session,2901.925748199981,168.0,2.0,72.0,0.015326825676800004,5,0.9627733999514021,1.1803064999985509,7,0.010988200025167316,0.012916399980895221,1,0.08432309998897836,0.2181643999647349,,,54.0,51.0,72607,60.0,
77,-77,45,15,9,249,10,,,,,,,,,,,session,2909.3373194999876,180.0,2.0,72.0,0.015326825676800004,4,0.6146926999790594,0.7650966999935918,7,0.011139400012325495,0.013043799961451441,1,0.01069730002200231,0.012602999981027097,,,57.0,57.0,72607,60.0,
77,77,90,15,10,250,3,,,,,,,,,,,session,2916.4923113000114,180.0,2.0,72.0,0.015326825676800004,5,0.6141717999707907,0.7142825999762863,1,0.32979819999309257,0.46149349998449907,0,0.010864400013815612,0.012805900012608618,,,54.0,54.0,72607,60.0,
77,77,-45,15,11,251,0,,,,,,,,,,,session,2923.9286219999776,174.0,2.0,72.0,0.015326825676800004,5,0.2948989999713376,0.39428760000737384,1,0.22799839999061078,0.3770085000433028,1,0.011816399986855686,0.01373000000603497,,,51.0,66.0,72607,60.0,
-77,-77,-45,15,12,252,12,,,,,,,,,,,session,2931.0124585999874,150.0,2.0,72.0,0.015326825676800004,2,0.7057337000151165,0.8737304999958724,0,0.01186019997112453,0.013782900001388043,0,0.010826299956534058,0.012770399975124747,,,72.0,60.0,72607,60.0,
-77,-77,45,15,13,253,14,,,,,,,,,,,session,2938.0796348000295,156.0,2.0,72.0,0.015326825676800004,5,0.8450285999570042,0.9962834999896586,0,0.010988300025928766,0.2311226000310853,0,0.010736399970483035,0.01263650000328198,,,57.0,48.0,72607,60.0,
77,-77,0,15,14,254,9,,,,,,,,,,,session,2945.1096635999857,132.0,2.0,72.0,0.015326825676800004,3,0.9971266000065953,1.1472410999704152,0,0.011225000023841858,0.013120400020852685,0,0.6832410999923013,0.866836900007911,,,57.0,51.0,72607,60.0,
77,-77,-45,15,15,255,8,,,,,,,,,,,session,2952.5877661000122,168.0,2.0,72.0,0.015326825676800004,2,0.9317117999889888,1.098565399996005,1,0.2585181999602355,0.4085192999918945,0,0.011048499960452318,0.03758369997376576,,,60.0,51.0,72607,60.0,
-77,-77,0,16,0,256,13,,,,,,,,,,,session,2960.240097199974,156.0,2.0,72.0,0.015326825676800004,5,0.8015963999787346,0.9683360999915749,6,0.010897799977101386,0.012802899989765137,0,0.010828299971763045,0.01274189999094233,,,69.0,66.0,72607,60.0,
-77,-77,45,16,1,257,14,,,,,,,,,,,session,2967.561789600004,150.0,2.0,72.0,0.015326825676800004,2,0.5517598000005819,0.7853360999724828,1,0.011198399995919317,0.01310909999301657,0,0.010664800007361919,0.01280239998595789,,,54.0,54.0,72607,60.0,
-77,77,-45,16,2,258,4,,,,,,,,,,,session,2974.111653900007,138.0,2.0,72.0,0.015326825676800004,5,1.7499324000091292,1.8822466999990866,1,0.33413470000959933,0.48966429999563843,0,0.010761199984699488,0.012679999985266477,,,63.0,69.0,72607,60.0,
77,-77,0,16,3,259,9,,,,,,,,,,,session,2982.461324599979,180.0,2.0,72.0,0.015326825676800004,4,0.6463594000088051,0.8457771000103094,1,0.5946102000307292,0.7296291000093333,0,0.4678573999553919,0.6358566000126302,,,63.0,72.0,72607,60.0,
77,-77,0,16,3,259,9,,,materials/instructions\12_break.png,2991.412162100023,3011.9462448999984,0,20.365272699971683,20.53197429998545,0.02218819997506216,20.53976179996971,,,,,,,,,,,,,,,,,,,,72607,60.0,
77,-77,45,16,4,260,10,,,,,,,,,,,session,3011.9618303999887,144.0,2.0,72.0,0.015326825676800004,4,0.32075169996824116,0.47126570000546053,7,0.41637779999291524,0.5483401999808848,1,0.010714399977587163,0.01276239997241646,,,66.0,57.0,72607,60.0,
77,77,0,16,5,261,1,,,,,,,,,,,session,3018.9000160000287,144.0,2.0,72.0,0.015326825676800004,2,1.3989658000064082,1.5491678999969736,0,0.011557099991478026,0.06581160001223907,0,0.09616689995164052,0.23041709995595738,,,57.0,54.0,72607,60.0,
77,77,-45,16,6,262,0,,,,,,,,,,,session,3026.467599699972,156.0,2.0,72.0,0.015326825676800004,5,0.01067039999179542,0.01262029999634251,1,0.4268562999786809,0.5104060000157915,1,0.13324130000546575,0.21678220003377646,,,63.0,57.0,72607,60.0,
77,-77,-45,16,7,263,8,,,,,,,,,,,session,3033.299394599977,156.0,2.0,72.0,0.015326825676800004,4,0.5016618000227027,0.6192657999927178,6,0.010907699994277209,0.012776500021573156,0,0.010923199995886534,0.012892100028693676,,,63.0,57.0,72607,60.0,
-77,-77,90,16,8,264,15,,,,,,,,,,,session,3039.9821441000095,126.0,2.0,72.0,0.015326825676800004,5,0.7966631000163034,0.9481139999697916,0,0.011106499994639307,0.01300999999511987,0,0.011209299962501973,0.013132699998095632,,,69.0,57.0,72607,60.0,
-77,77,90,16,9,265,7,,,,,,,,,,,session,3046.600656899973,144.0,2.0,72.0,0.015326825676800004,2,1.2927908999845386,1.4093137999880128,6,0.011527900001965463,0.03828360000625253,1,0.010871200007386506,0.01280540000880137,,,48.0,69.0,72607,60.0,
-77,-77,-45,16,10,266,12,,,,,,,,,,,session,3054.2870425999863,144.0,2.0,72.0,0.015326825676800004,4,0.8454665000317618,1.029052900034003,0,0.01105859997915104,0.012993799988180399,0,0.011956300004385412,0.013867100002244115,,,63.0,48.0,72607,60.0,
77,-77,90,16,11,267,11,,,,,,,,,,,session,3061.033004799974,162.0,2.0,72.0,0.015326825676800004,4,1.7637264999793842,1.9125139999669045,6,0.011843100015539676,0.013803799985907972,0,0.010738499986473471,0.012643599999137223,,,57.0,57.0,72607,60.0,
77,77,45,16,12,268,2,,,,,,,,,,,session,3069.0977127000224,150.0,2.0,72.0,0.015326825676800004,5,0.33732240000972524,0.4539297000155784,7,0.7923869999940507,0.9441838999628089,1,0.010715699987486005,0.01261600002180785,,,54.0,60.0,72607,60.0,
77,77,90,16,13,269,3,,,,,,,,,,,session,3076.828009699995,144.0,2.0,72.0,0.015326825676800004,2,1.013932499976363,1.1306363000185229,6,0.08096829999703914,0.1673263999982737,0,0.010710400005336851,0.012694699980784208,,,51.0,54.0,72607,60.0,
-77,77,45,16,14,270,6,,,,,,,,,,,session,3083.72711550002,156.0,2.0,72.0,0.015326825676800004,2,0.3307392000569962,0.46380070003215224,7,0.01100250001763925,0.012864099990110844,1,0.010881499969400465,0.012768000015057623,,,54.0,63.0,72607,60.0,
-77,77,0,16,15,271,5,,,,,,,,,,,session,3090.22108019999,162.0,2.0,72.0,0.015326825676800004,2,0.47216910001588985,0.6398330999654718,0,0.01098330004606396,0.01306920003844425,1,0.011251100047957152,0.013164800009690225,,,60.0,51.0,72607,60.0,
-77,77,90,17,0,272,7,,,,,,,,,,,session,3097.5665525000077,132.0,2.0,72.0,0.015326825676800004,4,0.7523960000253282,0.9525804999866523,6,0.2792994999908842,0.4127106000087224,0,0.2883510999963619,0.42172610003035516,,,48.0,60.0,72607,60.0,
-77,-77,-45,17,1,273,12,,,,,,,,,,,session,3104.803794700012,156.0,2.0,72.0,0.015326825676800004,5,1.0778514000121504,1.244626600004267,6,0.011450099991634488,0.013334000017493963,0,0.011163700022734702,0.01304859999800101,,,57.0,57.0,72607,60.0,
-77,-77,45,17,2,274,14,,,,,,,,,,,session,3112.020924900018,156.0,2.0,72.0,0.015326825676800004,3,0.6899901000433601,0.8869901000289246,7,0.447717199975159,0.5477538999984972,1,0.011127399979159236,0.012965100002475083,,,66.0,57.0,72607,60.0,
77,-77,45,17,3,275,10,,,,,,,,,,,session,3120.259346899984,132.0,2.0,72.0,0.015326825676800004,4,0.3585785999894142,0.608586499991361,7,0.010966500034555793,0.01285300002200529,1,0.0107727000140585,0.012673100049141794,,,60.0,69.0,72607,60.0,
-77,77,-45,17,4,276,4,,,,,,,,,,,session,3126.6968639999977,138.0,2.0,72.0,0.015326825676800004,2,0.8275624000234529,1.0130003000376746,6,0.01188379997620359,0.013745800009928644,0,0.01084080000873655,0.01278029999230057,,,51.0,60.0,72607,60.0,
77,-77,90,17,5,277,11,,,,,,,,,,,session,3133.3357995999977,168.0,2.0,72.0,0.015326825676800004,4,0.27548350003780797,0.47584150003967807,6,0.010964700020849705,0.012880599999334663,1,0.011973200016655028,0.013876300014089793,,,63.0,72.0,72607,60.0,
77,77,90,17,6,278,3,,,,,,,,,,,session,3140.8877762000193,132.0,2.0,72.0,0.015326825676800004,5,0.9308253999915905,1.0812653999892063,6,0.011062000005040318,0.013054599985480309,0,0.011050699977204204,0.012863599986303598,,,57.0,72.0,72607,60.0,
-77,77,45,17,7,279,6,,,,,,,,,,,session,3147.7984327999875,144.0,2.0,72.0,0.015326825676800004,3,0.8825187000329606,1.1324929000111297,7,0.010802200005855411,0.012655400030780584,0,0.010794600006192923,0.012708799971733242,,,57.0,48.0,72607,60.0,
-77,77,45,17,7,279,6,,,materials/instructions\12_break.png,3154.5695256000035,3168.601403400011,0,13.827378700021654,14.029630800010636,0.02252510003745556,14.035249100008514,,,,,,,,,,,,,,,,,,,,72607,60.0,
77,77,-45,17,8,280,0,,,,,,,,,,,session,3168.614829399972,144.0,2.0,72.0,0.015326825676800004,5,1.0666907000122592,1.1989288000040688,1,0.011281400045845658,0.013225600006990135,1,0.010774299968034029,0.012632799975108355,,,63.0,48.0,72607,60.0,
77,77,45,17,9,281,2,,,,,,,,,,,session,3175.550255000009,126.0,2.0,72.0,0.015326825676800004,5,0.2865975000313483,0.43673840002156794,7,0.010961299994960427,0.013153399981092662,1,0.011057699972297996,0.012943800014909357,,,57.0,63.0,72607,60.0,
-77,77,0,17,10,282,5,,,,,,,,,,,session,3181.645530799986,132.0,2.0,72.0,0.015326825676800004,2,0.38074589997995645,0.5808910999912769,0,0.011061800003517419,0.012959299958311021,0,0.011010699963662773,0.012923599977511913,,,60.0,69.0,72607,60.0,
77,77,0,17,11,283,1,,,,,,,,,,,session,3188.0460757000255,174.0,2.0,72.0,0.015326825676800004,5,0.3265280000050552,0.47882870002649724,0,0.011150200036354363,0.013036200019996613,1,0.010879900015424937,0.012801700038835406,,,72.0,69.0,72607,60.0,
-77,-77,0,17,12,284,13,,,,,,,,,,,session,3195.2491359999985,162.0,2.0,72.0,0.015326825676800004,4,1.0598839999875054,1.2600310000125319,6,0.011060799995902926,0.013151100021786988,0,0.010783500038087368,0.012673799996264279,,,48.0,63.0,72607,60.0,
77,-77,-45,17,13,285,8,,,,,,,,,,,session,3202.566428899998,180.0,2.0,72.0,0.015326825676800004,2,1.4313450999907218,1.5328953000134788,0,0.6106354999938048,0.7597974000382237,0,0.010968699993100017,0.013100600044708699,,,51.0,57.0,72607,60.0,
-77,-77,90,17,14,286,15,,,,,,,,,,,session,3211.3444189000293,168.0,2.0,72.0,0.015326825676800004,4,0.7796408999711275,0.9296343000023626,1,0.3153262999840081,0.38189720001537353,0,0.010719100013375282,0.012696900055743754,,,54.0,69.0,72607,60.0,
77,-77,0,17,15,287,9,,,,,,,,,,,session,3218.9638245999813,168.0,2.0,72.0,0.015326825676800004,4,0.2889450999791734,0.4073261999874376,0,0.20354369998676702,0.4041970999678597,1,0.010846199991647154,0.03962520003551617,,,48.0,60.0,72607,60.0,
-77,-77,0,18,0,288,13,,,,,,,,,,,session,3225.9257343999925,150.0,2.0,72.0,0.015326825676800004,5,0.7619907000334933,0.9751101000001654,6,0.010991399991326034,0.012906999967526644,0,0.010771000001113862,0.012698100006673485,,,66.0,54.0,72607,60.0,
77,77,0,18,1,289,1,,,,,,,,,,,session,3232.879703100014,162.0,2.0,72.0,0.015326825676800004,5,0.8979254000005312,1.048002399969846,7,0.011272600037045777,0.013184400042518973,0,0.03469169995514676,0.220013799960725,,,66.0,48.0,72607,60.0,
77,77,45,18,2,290,2,,,,,,,,,,,session,3240.222743200022,144.0,2.0,72.0,0.015326825676800004,2,0.6631330999662168,0.8136238000006415,7,0.5008685999782756,0.6332422999548726,1,0.010727299959398806,0.012594899977557361,,,57.0,63.0,72607,60.0,
-77,-77,-45,18,3,291,12,,,,,,,,,,,session,3247.546642399975,180.0,2.0,72.0,0.015326825676800004,5,0.8971242000116035,0.9973890999681316,6,0.010772600013297051,0.012695200042799115,0,0.010756800009403378,0.012667200004216284,,,69.0,72.0,72607,60.0,
-77,77,45,18,4,292,6,,,,,,,,,,,session,3255.413436600007,126.0,2.0,72.0,0.015326825676800004,4,0.647294000023976,0.8830491999979131,1,0.010982099978718907,0.19297969999024644,0,0.01092969998717308,0.013383699988480657,,,60.0,54.0,72607,60.0,
-77,77,-45,18,5,293,4,,,,,,,,,,,session,3261.952334899979,168.0,2.0,72.0,0.015326825676800004,2,0.9140589999733493,1.0810259000281803,1,0.34189989999867976,0.4916034000343643,0,0.010776699986308813,0.012671199976466596,,,69.0,60.0,72607,60.0,
77,77,90,18,6,294,3,,,,,,,,,,,session,3269.9337980999844,174.0,2.0,72.0,0.015326825676800004,5,0.47390129999257624,0.5728882999974303,6,0.010822399985045195,0.012630300014279783,6,0.010685699991881847,0.10007019998738542,,,48.0,54.0,72607,60.0,
-77,77,0,18,7,295,5,,,,,,,,,,,session,3276.66588450002,150.0,2.0,72.0,0.015326825676800004,4,0.6812525999848731,0.863406699965708,7,0.010924500005785376,0.0128691999707371,0,0.3385466000181623,0.5220072000520304,,,57.0,69.0,72607,60.0,
77,-77,0,18,8,296,9,,,,,,,,,,,session,3284.1093453000067,144.0,2.0,72.0,0.015326825676800004,4,1.2333523000124842,1.3500563999987207,6,0.012553300010040402,0.014435900026001036,0,0.011282799998298287,0.013139199989382178,,,60.0,60.0,72607,60.0,
77,-77,-45,18,9,297,8,,,,,,,,,,,session,3291.368906799995,132.0,2.0,72.0,0.015326825676800004,4,0.310561099962797,0.462413800007198,1,0.3587256000027992,0.5084977999795228,1,0.01076380000449717,0.012675800011493266,,,72.0,60.0,72607,60.0,
-77,77,90,18,10,298,7,,,,,,,,,,,session,3298.227693199995,144.0,2.0,72.0,0.015326825676800004,5,1.1307597000268288,1.2311017999891192,6,0.010779600008390844,0.0128944999887608,0,0.01069259998621419,0.012612199992872775,,,69.0,69.0,72607,60.0,
77,-77,45,18,11,299,10,,,,,,,,,,,session,3305.631428599998,126.0,2.0,72.0,0.015326825676800004,4,0.325279800046701,0.459805199992843,7,0.5457497999886982,0.6694903000025079,6,0.053099999960977584,0.1717750999960117,,,51.0,51.0,72607,60.0,
77,-77,45,18,11,299,10,,,materials/instructions\12_break.png,3312.2132571000257,3331.275579900015,0,18.840849599975627,19.060137299995404,0.01581190002616495,19.065967999980785,,,,,,,,,,,,,,,,,,,,72607,60.0,
77,77,-45,18,12,300,0,,,,,,,,,,,session,3331.289050600026,162.0,2.0,72.0,0.015326825676800004,5,2.9616351000149734,3.078137999982573,6,0.2970829000114463,0.4638536000275053,0,0.116760200005956,0.3002942000166513,,,48.0,60.0,72607,60.0,
-77,-77,90,18,13,301,15,,,,,,,,,,,session,3341.5532586000045,162.0,2.0,72.0,0.015326825676800004,2,1.513903199986089,1.7306843000114895,1,0.30986530001973733,0.4599923000205308,0,0.3715249000233598,0.5397594000096433,,,57.0,48.0,72607,60.0,
-77,-77,45,18,14,302,14,,,,,,,,,,,session,3350.1909154999885,168.0,2.0,72.0,0.015326825676800004,5,1.212475300009828,1.2960088000399992,6,0.35581689997343346,0.4118773999507539,0,0.26761089998763055,0.3800478999619372,,,54.0,57.0,72607,60.0,
77,-77,90,18,15,303,11,,,,,,,,,,,session,3358.3827335999813,144.0,2.0,72.0,0.015326825676800004,4,0.3612618999904953,0.5111840000026859,7,0.8941140999668278,1.0278513999655843,1,0.011016100004781038,0.09839860000647604,,,66.0,54.0,72607,60.0,
-77,77,-45,19,0,304,4,,,,,,,,,,,session,3365.867158900015,132.0,2.0,72.0,0.015326825676800004,5,0.745581499999389,0.8289660000009462,1,0.12986859999364242,0.24604510003700852,0,0.3297227000002749,0.48234489996684715,,,72.0,72.0,72607,60.0,
77,-77,45,19,1,305,10,,,,,,,,,,,session,3373.476868900005,180.0,2.0,72.0,0.015326825676800004,4,0.6777791000204161,0.7778554000542499,7,0.6239716000272892,0.6910255000111647,1,0.06590869999490678,0.21881230000872165,,,66.0,63.0,72607,60.0,
77,77,-45,19,2,306,0,,,,,,,,,,,session,3381.838811499998,168.0,2.0,72.0,0.015326825676800004,5,0.33855780004523695,0.4032373000518419,1,0.7146240000147372,0.8145831000292674,1,0.2366141999955289,0.35275359998922795,,,51.0,63.0,72607,60.0,
-77,77,90,19,3,307,7,,,,,,,,,,,session,3389.5687937000184,138.0,2.0,72.0,0.015326825676800004,2,1.0832221999880858,1.3000303999870084,0,0.010827900026924908,0.0127892000018619,0,0.011304199986625463,0.013211200013756752,,,69.0,54.0,72607,60.0,
-77,-77,45,19,4,308,14,,,,,,,,,,,session,3396.68748339999,138.0,2.0,72.0,0.015326825676800004,5,1.5108303999877535,1.577618099981919,6,0.011534599994774908,0.013453799998387694,0,0.3368672999786213,0.47058079997077584,,,72.0,69.0,72607,60.0,
77,-77,90,19,5,309,11,,,,,,,,,,,session,3404.984513400006,126.0,2.0,72.0,0.015326825676800004,4,1.8133759999764152,1.9303731999825686,1,0.08003780001308769,0.26478140003746375,0,0.1000431000138633,0.25010359997395426,,,57.0,57.0,72607,60.0,
-77,-77,-45,19,6,310,12,,,,,,,,,,,session,3412.8697255000006,156.0,2.0,72.0,0.015326825676800004,4,1.0987194000044838,1.2308679999550804,6,0.3817309000296518,0.4991814999957569,0,0.4817252000211738,0.6495455999975093,,,48.0,63.0,72607,60.0,
77,-77,-45,19,7,311,8,,,,,,,,,,,session,3421.1444649000186,168.0,2.0,72.0,0.015326825676800004,5,1.4427319000242278,1.4760080000269227,1,0.5777388999704272,0.7116367999697104,0,0.9863355999696068,1.2029893000144511,,,51.0,69.0,72607,60.0,
77,77,0,19,8,312,1,,,,,,,,,,,session,3431.5881438999786,150.0,2.0,72.0,0.015326825676800004,5,0.5975719999987632,0.7321769999689423,0,0.5637860000133514,0.6648659000056796,6,1.7026189000462182,1.853772400005255,,,63.0,66.0,72607,60.0,
77,77,90,19,9,313,3,,,,,,,,,,,session,3440.92549970001,180.0,2.0,72.0,0.015326825676800004,5,1.4568703999975696,1.5445268000476062,6,1.1804449000046588,1.246332100010477,1,0.6690213000401855,0.851770100009162,,,72.0,69.0,72607,60.0,
-77,-77,90,19,10,314,15,,,,,,,,,,,session,3451.654302400013,162.0,2.0,72.0,0.015326825676800004,4,0.7937320999917574,0.9435299999895506,1,0.045834299991838634,0.19683590001659468,0,0.6858373999712057,0.8200741999899037,,,69.0,48.0,72607,60.0,
77,77,45,19,11,315,2,,,,,,,,,,,session,3459.707260299998,174.0,2.0,72.0,0.015326825676800004,5,0.2942252000211738,0.3775231000036001,7,0.7166623999946751,0.822592300013639,1,0.28002840001136065,0.41336239996599033,,,69.0,63.0,72607,60.0,
-77,-77,0,19,12,316,13,,,,,,,,,,,session,3467.8716632000287,144.0,2.0,72.0,0.015326825676800004,3,0.3183532999828458,0.5182901000371203,0,0.3094853999791667,0.4273553999955766,1,1.2033407000126317,1.319966800045222,,,72.0,60.0,72607,60.0,
-77,77,0,19,13,317,5,,,,,,,,,,,session,3476.4238722000155,132.0,2.0,72.0,0.015326825676800004,5,1.0457594000035897,1.1125433000270277,1,0.5253490000031888,0.5923182999831624,0,2.624175600009039,2.722134600044228,,,66.0,57.0,72607,60.0,
-77,77,45,19,14,318,6,,,,,,,,,,,session,3486.545106799982,156.0,2.0,72.0,0.015326825676800004,4,1.1070198999950662,1.2872164999716915,1,0.22539470001356676,0.3753429999924265,0,0.26462570001604035,0.4146432999987155,,,54.0,51.0,72607,60.0,
77,-77,0,19,15,319,9,,,,,,,,,,,session,3495.0184356999816,150.0,2.0,72.0,0.015326825676800004,5,0.9791337999631651,1.0469479999737814,7,0.298300200025551,0.3325213000061922,0,1.4368752000154927,1.503378800000064,,,72.0,63.0,72607,60.0,
77,-77,0,19,15,319,9,,,materials/instructions\12_break.png,3504.1207286000135,3514.8167448000167,0,10.561038299987558,10.694356799998786,0.020848000014666468,10.701859699969646,,,,,,,,,,,,,,,,,,,,72607,60.0,
77,-77,-45,20,0,320,8,,,,,,,,,,,session,3514.833092999994,132.0,2.0,72.0,0.015326825676800004,4,0.6643995000049472,0.8322653999784961,0,0.010704800020903349,0.012601900030858815,0,0.010798200033605099,0.012698100006673485,,,51.0,66.0,72607,60.0,
77,-77,45,20,1,321,10,,,,,,,,,,,session,3521.298313200008,174.0,2.0,72.0,0.015326825676800004,5,0.9823408999945968,1.1489951999974437,6,0.07741430000169203,0.19734660000540316,0,0.30264339997665957,0.46956400002818555,,,54.0,48.0,72607,60.0,
-77,-77,0,20,2,322,13,,,,,,,,,,,session,3529.1586667000083,132.0,2.0,72.0,0.015326825676800004,4,0.8517214999883436,0.9560588999884203,1,0.01072379999095574,0.012710199982393533,0,0.465634299966041,0.6492546999943443,,,72.0,57.0,72607,60.0,
77,77,45,20,3,323,2,,,,,,,,,,,session,3536.586220199999,132.0,2.0,72.0,0.015326825676800004,5,0.34227899997495115,0.44057519995840266,7,0.9463183000334539,1.0458304000203498,1,1.1549720999901183,1.3050317000015639,,,69.0,60.0,72607,60.0,
-77,77,90,20,4,324,7,,,,,,,,,,,session,3545.1902826000005,126.0,2.0,72.0,0.015326825676800004,2,0.8194265999482013,0.9861410000012256,1,0.6106265999842435,0.744096799986437,0,0.3894344999571331,0.5386764999711886,,,72.0,54.0,72607,60.0,
77,77,-45,20,5,325,0,,,,,,,,,,,session,3553.094260999991,126.0,2.0,72.0,0.015326825676800004,4,0.3889111999887973,0.5555066000088118,7,0.3285084000090137,0.4119267999776639,0,0.6290450000087731,0.8125892999814823,,,60.0,48.0,72607,60.0,
77,-77,90,20,6,326,11,,,,,,,,,,,session,3560.7522969000274,174.0,2.0,72.0,0.015326825676800004,4,0.3774748999858275,0.5305400000070222,6,0.34513550001429394,0.4627837000298314,1,0.8585019999882206,0.9602051000110805,,,60.0,63.0,72607,60.0,
-77,-77,90,20,7,327,15,,,,,,,,,,,session,3569.111996099993,144.0,2.0,72.0,0.015326825676800004,4,1.2479273999924771,1.331155400024727,1,0.029375699989032,0.14751770003931597,1,0.012410799972712994,0.014323499985039234,,,48.0,60.0,72607,60.0,
-77,77,0,20,8,328,5,,,,,,,,,,,session,3576.2506768999738,138.0,2.0,72.0,0.015326825676800004,5,1.0243973000324331,1.1745047000003979,1,0.12874750001356006,0.2456508000032045,0,0.5175435999990441,0.6483117999741808,,,66.0,72.0,72607,60.0,
-77,77,-45,20,9,329,4,,,,,,,,,,,session,3585.039828800014,168.0,2.0,72.0,0.015326825676800004,5,0.9320882000029087,0.9844108000397682,6,0.46720479999203235,0.6171941999928094,0,0.37276329996529967,0.540443999983836,,,63.0,57.0,72607,60.0,
-77,-77,-45,20,10,330,12,,,,,,,,,,,session,3593.4435011000023,168.0,2.0,72.0,0.015326825676800004,3,1.3043255000375211,1.4080394000047818,1,0.9108531000092626,1.0207176000112668,1,0.3973320000222884,0.5666321000317112,,,66.0,60.0,72607,60.0,
-77,77,45,20,11,331,6,,,,,,,,,,,session,3602.8219999999856,126.0,2.0,72.0,0.015326825676800004,5,1.0243984999833629,1.1938816999900155,1,0.5302230000379495,0.6788909999886528,0,0.3546020000358112,0.48773170000640675,,,69.0,54.0,72607,60.0,
77,77,90,20,12,332,3,,,,,,,,,,,session,3610.7887762999744,156.0,2.0,72.0,0.015326825676800004,5,0.47960839996812865,0.5628544999635778,6,0.262440400023479,0.4125652000075206,1,0.23238000000128523,0.35016480000922456,,,48.0,66.0,72607,60.0,
-77,-77,45,20,13,333,14,,,,,,,,,,,session,3618.0771453999914,156.0,2.0,72.0,0.015326825676800004,2,0.8683217000216246,0.957125700020697,0,0.242527499969583,0.3763640999677591,0,0.16960700001800433,0.30166990001453087,,,63.0,57.0,72607,60.0,
77,77,0,20,14,334,1,,,,,,,,,,,session,3626.3191094999784,156.0,2.0,72.0,0.015326825676800004,5,0.2778711999999359,0.39287509996211156,0,0.2129787000012584,0.34649850003188476,1,0.011731999984476715,0.052658299973700196,,,54.0,69.0,72607,60.0,
77,-77,0,20,15,335,9,,,,,,,,,,,session,3633.2028093999834,126.0,2.0,72.0,0.015326825676800004,5,0.7839795000036247,0.9160403000423685,0,0.2453421000391245,0.34519790002377704,0,0.010796999966260046,0.13032990001374856,,,54.0,57.0,72607,60.0,
