x,y,orientation,.thisRepN,.thisTrialN,.thisN,.thisIndex,.stepSize,.intensity,image_name,global_start_time,global_end_time,pressKey,pressRT,releaseRT,image_started,image_ended,name,globalTime,fixation_dur,stimulation_dur,post_fixation,opacity,locationResponse_pressKey,locationResponse_pressRT,locationResponse_releaseRT,orientationResponse_pressKey,orientationResponse_pressRT,orientationResponse_releaseRT,pasResponse_pressKey,pasResponse_pressRT,pasResponse_releaseRT,.response,finalOpacity,postLoc,postOri,ID,frameRate,
,,,0,-1,-1,0,0.0969100130080564,None,materials/instructions\1_welcome.png,4.208885599859059,60.13177830004133,0,55.820580600062385,55.920574499992654,0.05811129999347031,55.91981299989857,,,,,,,,,,,,,,,,,,,,80621,60.0,
,,,0,-1,-1,0,0.0969100130080564,None,materials/instructions\2_instruction.png,60.19286710000597,83.86535630002618,0,23.537011299980804,23.670392400119454,0.025364300003275275,23.67790520004928,,,,,,,,,,,,,,,,,,,,80621,60.0,
,,,0,-1,-1,0,0.0969100130080564,None,materials/instructions\3_location_demo.png,83.92822290002368,92.2225097999908,0,8.175571199972183,8.292169699911028,0.02476499998010695,8.30027010012418,,,,,,,,,,,,,,,,,,,,80621,60.0,
,,,0,-1,-1,0,0.0969100130080564,None,materials/instructions\4_orientation_demo.png,92.26852559996769,116.1808682999108,0,23.793903100071475,23.91068800003268,0.022660800023004413,23.916714400053024,,,,,,,,,,,,,,,,,,,,80621,60.0,
,,,0,-1,-1,0,0.0969100130080564,None,materials/instructions\5_pas_demo.png,116.2516163000837,119.57785460003652,0,3.1941885999403894,3.3242246999870986,0.026046699844300747,3.3346535998862237,,,,,,,,,,,,,,,,,,,,80621,60.0,
77,77,0,0,-1,-1,0,0.0969100130080564,None,,,,,,,,,session,119.59725239989348,126.0,2.0,72.0,1.0,5,1.6581969000399113,1.808311700122431,0,1.0162581999320537,1.1163466998841614,6,2.0737112001515925,2.141780300065875,,,,,80621,60.0,
-77,77,-45,0,-1,-1,0,0.0969100130080564,None,,,,,,,,,session,128.18630219995975,150.0,2.0,72.0,1.0,2,1.1893607000820339,1.2893497000914067,1,4.762825700221583,4.890672200126573,1,1.444569000042975,1.5489585001487285,,,,,80621,60.0,
77,77,-45,0,-1,-1,0,0.0969100130080564,None,,,,,,,,,session,139.81851770007052,132.0,2.0,72.0,1.0,5,1.0998094000387937,1.2009344000834972,1,1.7679997999221087,1.8655081000179052,6,1.4001388000324368,1.5004269001074135,,,,,80621,60.0,
77,77,90,0,-1,-1,0,0.0969100130080564,None,,,,,,,,,session,147.98423249996267,138.0,2.0,72.0,1.0,5,0.9144059000536799,1.014491899870336,6,2.0227842999156564,2.140907800057903,6,1.316281700041145,1.4159756998997182,,,,,80621,60.0,
77,77,45,0,-1,-1,0,0.0969100130080564,None,,,,,,,,,session,156.25689000007696,138.0,2.0,72.0,1.0,5,0.5099717997945845,0.659963299985975,7,1.125302700093016,1.2128944001160562,6,1.0785509999841452,1.1452269000001252,,,,,80621,60.0,
,,,0,-1,-1,0,0.0969100130080564,None,materials/instructions\10_staircase_start.png,163.0931283000391,169.1812141998671,0,5.969195400131866,6.085867400048301,0.020588500192388892,6.093912900192663,,,,,,,,,,,,,,,,,,,,80621,60.0,
,,,0,0,-1,0,0.0969100130080564,0.2,,,,,,,,,staircase,169.19591400003992,150.0,2.0,72.0,0.2,,,,7,1.9581728000193834,2.0579599000047892,,,,1,,,,80621,60.0,
,,,0,1,-1,0,0.0969100130080564,0.16,,,,,,,,,staircase,175.08639069995843,138.0,2.0,72.0,0.16,,,,7,1.3059495000634342,1.4218174999114126,,,,1,,,,80621,60.0,
,,,0,2,-1,0,0.0969100130080564,0.128,,,,,,,,,staircase,180.123669099994,126.0,2.0,72.0,0.128,,,,7,1.1154847000725567,1.2285686999093741,,,,1,,,,80621,60.0,
,,,0,3,-1,0,0.0969100130080564,0.1024,,,,,,,,,staircase,185.33077779994346,168.0,2.0,72.0,0.1024,,,,7,0.45373800001107156,0.5878463999833912,,,,1,,,,80621,60.0,
,,,0,4,-1,0,0.0969100130080564,0.08192,,,,,,,,,staircase,190.05109580000862,150.0,2.0,72.0,0.08192,,,,6,0.38361710007302463,0.46479539992287755,,,,1,,,,80621,60.0,
,,,0,5,-1,0,0.0969100130080564,0.06553600000000001,,,,,,,,,staircase,194.3341703999322,132.0,2.0,72.0,0.06553600000000001,,,,6,0.3740389999002218,0.4240067999344319,,,,1,,,,80621,60.0,
,,,0,6,-1,0,0.0969100130080564,0.05242880000000001,,,,,,,,,staircase,198.27132719988003,144.0,2.0,72.0,0.05242880000000001,,,,0,1.0242163999937475,1.1237419999670237,,,,1,,,,80621,60.0,
,,,0,7,-1,0,0.0969100130080564,0.04194304000000001,,,,,,,,,staircase,203.10705169988796,180.0,2.0,72.0,0.04194304000000001,,,,0,0.6941975001245737,0.8109570001251996,,,,1,,,,80621,60.0,
,,,0,8,-1,0,0.0969100130080564,0.03355443200000001,,,,,,,,,staircase,208.8327601000201,132.0,2.0,72.0,0.03355443200000001,,,,7,1.3347096000798047,1.5190459999721497,,,,1,,,,80621,60.0,
,,,0,9,-1,0,0.0969100130080564,0.026843545600000008,,,,,,,,,staircase,213.8684938000515,168.0,2.0,72.0,0.026843545600000008,,,,1,1.0319539997726679,1.1663550999946892,,,,1,,,,80621,60.0,
,,,0,10,-1,0,0.0969100130080564,0.021474836480000006,,,,,,,,,staircase,219.15506249992177,168.0,2.0,72.0,0.021474836480000006,,,,0,3.5445107999257743,3.611159299965948,,,,0,,,,80621,60.0,
,,,0,11,-1,0,0.0969100130080564,0.026843545600000008,,,,,,,,,staircase,226.8955407999456,174.0,2.0,72.0,0.026843545600000008,,,,6,1.531392800156027,1.713856799993664,,,,1,,,,80621,60.0,
,,,0,12,-1,0,0.0969100130080564,0.021474836480000006,,,,,,,,,staircase,233.20206749998033,150.0,2.0,72.0,0.021474836480000006,,,,1,1.3557896001730114,1.5381011001300067,,,,1,,,,80621,60.0,
,,,0,13,-1,0,0.0969100130080564,0.017179869184000003,,,,,,,,,staircase,238.5522251999937,156.0,2.0,72.0,0.017179869184000003,,,,7,1.3129926000256091,1.4632408001925796,,,,1,,,,80621,60.0,
,,,0,14,-1,0,0.0969100130080564,0.013743895347200002,,,,,,,,,staircase,243.9392057999503,150.0,2.0,72.0,0.013743895347200002,,,,6,2.315225000027567,2.469402000075206,,,,0,,,,80621,60.0,
,,,0,15,-1,0,0.0969100130080564,0.013743895347200002,,,,,,,,,staircase,250.21837719995528,156.0,2.0,72.0,0.013743895347200002,,,,1,1.6061637999955565,1.7711593001149595,,,,0,,,,80621,60.0,
,,,0,16,-1,0,0.0969100130080564,0.017179869184000003,,,,,,,,,staircase,255.9843524999451,180.0,2.0,72.0,0.017179869184000003,,,,0,1.6920478998217732,1.8420517998747528,,,,0,,,,80621,60.0,
,,,0,17,-1,0,0.0969100130080564,0.017179869184000003,,,,,,,,,staircase,262.1528626999352,132.0,2.0,72.0,0.017179869184000003,,,,1,2.5357345000375062,2.6516370999161154,,,,1,,,,80621,60.0,
,,,0,18,-1,0,0.0969100130080564,0.013743895347200002,,,,,,,,,staircase,268.3081722999923,168.0,2.0,72.0,0.013743895347200002,,,,6,1.6818666998296976,1.8318111998960376,,,,0,,,,80621,60.0,
,,,0,19,-1,0,0.0969100130080564,0.013743895347200002,,,,,,,,,staircase,274.8200308000669,144.0,2.0,72.0,0.013743895347200002,,,,7,1.3678588999900967,1.5347672998905182,,,,0,,,,80621,60.0,
,,,0,20,-1,0,0.0969100130080564,0.017179869184000003,,,,,,,,,staircase,280.08575359988026,168.0,2.0,72.0,0.017179869184000003,,,,0,1.430408600019291,1.563372200122103,,,,0,,,,80621,60.0,
,,,0,21,-1,0,0.0969100130080564,0.017179869184000003,,,,,,,,,staircase,285.7719105000142,150.0,2.0,72.0,0.017179869184000003,,,,1,1.3543871000874788,1.4712058000732213,,,,1,,,,80621,60.0,
,,,0,22,-1,0,0.0969100130080564,0.013743895347200002,,,,,,,,,staircase,291.059104999993,168.0,2.0,72.0,0.013743895347200002,,,,6,1.5163671998307109,1.6160652998369187,,,,1,,,,80621,60.0,
,,,0,23,-1,0,0.0969100130080564,0.010995116277760002,,,,,,,,,staircase,297.4345855000429,174.0,2.0,72.0,0.010995116277760002,,,,1,1.838764499872923,1.9707327000796795,,,,1,,,,80621,60.0,
,,,0,24,-1,0,0.0969100130080564,0.008796093022208,,,,,,,,,staircase,303.6352405999787,156.0,2.0,72.0,0.008796093022208,,,,7,1.2690850000362843,1.3702068000566214,,,,0,,,,80621,60.0,
,,,0,25,-1,0,0.0969100130080564,0.008796093022208,,,,,,,,,staircase,308.9230080000125,174.0,2.0,72.0,0.008796093022208,,,,6,1.990825700107962,2.163036399986595,,,,0,,,,80621,60.0,
,,,0,26,-1,0,0.0969100130080564,0.010995116277760002,,,,,,,,,staircase,315.30195469991304,150.0,2.0,72.0,0.010995116277760002,,,,1,1.2919265998061746,1.423756399890408,,,,0,,,,80621,60.0,
,,,0,27,-1,0,0.0969100130080564,0.010995116277760002,,,,,,,,,staircase,320.9510055000428,174.0,2.0,72.0,0.010995116277760002,,,,7,1.4215976998675615,1.5739652998745441,,,,1,,,,80621,60.0,
,,,0,28,-1,0,0.0969100130080564,0.008796093022208,,,,,,,,,staircase,326.73765060002916,132.0,2.0,72.0,0.008796093022208,,,,6,1.338260400108993,1.4727271001320332,,,,0,,,,80621,60.0,
,,,0,29,-1,0,0.0969100130080564,0.008796093022208,,,,,,,,,staircase,331.74106779997237,156.0,2.0,72.0,0.008796093022208,,,,6,4.60890549980104,4.755976299988106,,,,1,,,,80621,60.0,
,,,0,30,-1,0,0.0969100130080564,0.007036874417766401,,,,,,,,,staircase,340.4323593999725,132.0,2.0,72.0,0.007036874417766401,,,,0,1.3765628000255674,1.5265424000099301,,,,0,,,,80621,60.0,
,,,0,31,-1,0,0.0969100130080564,0.007036874417766401,,,,,,,,,staircase,345.48476010002196,168.0,2.0,72.0,0.007036874417766401,,,,1,1.2545390001032501,1.4208217000123113,,,,0,,,,80621,60.0,
,,,0,32,-1,0,0.0969100130080564,0.008796093022208,,,,,,,,,staircase,351.0379476000089,180.0,2.0,72.0,0.008796093022208,,,,7,1.8487521999049932,2.0486940999981016,,,,0,,,,80621,60.0,
,,,0,33,-1,0,0.0969100130080564,0.008796093022208,,,,,,,,,staircase,357.41089889989235,150.0,2.0,72.0,0.008796093022208,,,,6,1.1455500998999923,1.3152875998057425,,,,0,,,,80621,60.0,
,,,0,34,-1,0,0.0969100130080564,0.010995116277760002,,,,,,,,,staircase,363.1699298999738,132.0,2.0,72.0,0.010995116277760002,,,,0,1.6189770000055432,1.8019224000163376,,,,1,,,,80621,60.0,
,,,0,35,-1,0,0.0969100130080564,0.008796093022208,,,,,,,,,staircase,368.50115510006435,126.0,2.0,72.0,0.008796093022208,,,,1,1.48599569988437,1.6528280000202358,,,,0,,,,80621,60.0,
,,,0,36,-1,0,0.0969100130080564,0.008796093022208,,,,,,,,,staircase,373.57128240005113,126.0,2.0,72.0,0.008796093022208,,,,6,1.4338507000356913,1.6338615999557078,,,,0,,,,80621,60.0,
,,,0,37,-1,0,0.0969100130080564,0.010995116277760002,,,,,,,,,staircase,378.6257835000288,150.0,2.0,72.0,0.010995116277760002,,,,7,1.8671141001395881,2.134107199963182,,,,0,,,,80621,60.0,
,,,0,38,-1,0,0.0969100130080564,0.010995116277760002,,,,,,,,,staircase,385.1533550999593,126.0,2.0,72.0,0.010995116277760002,,,,1,1.5006677000783384,1.6691407000180334,,,,0,,,,80621,60.0,
,,,0,39,-1,0,0.0969100130080564,0.013743895347200002,,,,,,,,,staircase,390.25301919993944,162.0,2.0,72.0,0.013743895347200002,,,,6,1.6366334999911487,1.7856413999106735,,,,0,,,,80621,60.0,
,,,0,40,-1,0,0.0969100130080564,0.013743895347200002,,,,,,,,,staircase,396.05667049996555,174.0,2.0,72.0,0.013743895347200002,,,,0,2.2575109999161214,2.4481180999428034,,,,0,,,,80621,60.0,
,,,0,41,-1,0,0.0969100130080564,0.017179869184000003,,,,,,,,,staircase,402.7351249998901,168.0,2.0,72.0,0.017179869184000003,,,,1,1.300561600131914,1.4838994999881834,,,,0,,,,80621,60.0,
,,,0,42,-1,0,0.0969100130080564,0.017179869184000003,,,,,,,,,staircase,408.95140479994006,138.0,2.0,72.0,0.017179869184000003,,,,6,1.3661291999742389,1.6471214999910444,,,,1,,,,80621,60.0,
,,,0,43,-1,0,0.0969100130080564,0.013743895347200002,,,,,,,,,staircase,414.2198280999437,174.0,2.0,72.0,0.013743895347200002,,,,7,1.840232799993828,2.104946300154552,,,,0,,,,80621,60.0,
,,,0,44,-1,0,0.0969100130080564,0.013743895347200002,,,,,,,,,staircase,420.54215639992617,174.0,2.0,72.0,0.013743895347200002,,,,6,1.9861987000331283,2.186477799899876,,,,1,,,,80621,60.0,
,,,0,45,-1,0,0.0969100130080564,0.010995116277760002,,,,,,,,,staircase,426.9861316999886,126.0,2.0,72.0,0.010995116277760002,,,,1,1.1251141000539064,1.3086987999267876,,,,0,,,,80621,60.0,
,,,0,46,-1,0,0.0969100130080564,0.010995116277760002,,,,,,,,,staircase,431.836647399934,132.0,2.0,72.0,0.010995116277760002,,,,0,2.0685743000358343,2.250732900109142,,,,1,,,,80621,60.0,
,,,0,47,-1,0,0.0969100130080564,0.008796093022208,,,,,,,,,staircase,437.6041113999672,126.0,2.0,72.0,0.008796093022208,,,,1,1.687843200052157,1.8693701000884175,,,,0,,,,80621,60.0,
,,,0,48,-1,0,0.0969100130080564,0.008796093022208,,,,,,,,,staircase,442.8922659000382,180.0,2.0,72.0,0.008796093022208,,,,6,1.4693256001919508,1.6482703001238406,,,,0,,,,80621,60.0,
,,,0,49,-1,0,0.0969100130080564,0.010995116277760002,,,,,,,,,staircase,448.9820042999927,168.0,2.0,72.0,0.010995116277760002,,,,7,2.772703900001943,3.056314100045711,,,,0,,,,80621,60.0,
,,,0,50,-1,0,0.0969100130080564,0.010995116277760002,,,,,,,,,staircase,456.2851011999883,174.0,2.0,72.0,0.010995116277760002,,,,0,1.9440510999411345,2.1604971999768168,,,,1,,,,80621,60.0,
,,,0,51,-1,0,0.0969100130080564,0.008796093022208,,,,,,,,,staircase,462.6723807998933,180.0,2.0,72.0,0.008796093022208,,,,1,1.3880010999273509,1.5874592000618577,,,,0,,,,80621,60.0,
,,,0,52,-1,0,0.0969100130080564,0.008796093022208,,,,,,,,,staircase,468.5773463998921,150.0,2.0,72.0,0.008796093022208,,,,6,1.2806607000529766,1.4474007000681013,,,,1,,,,80621,60.0,
,,,0,53,-1,0,0.0969100130080564,0.007036874417766401,,,,,,,,,staircase,474.402010000078,144.0,2.0,72.0,0.007036874417766401,,,,7,1.3530726998578757,1.6869957000017166,,,,0,,,,80621,60.0,
,,,0,54,-1,0,0.0969100130080564,0.007036874417766401,,,,,,,,,staircase,479.80499959993176,150.0,2.0,72.0,0.007036874417766401,,,,6,0.9495701999403536,1.1834493998903781,,,,0,,,,80621,60.0,
,,,0,55,-1,0,0.0969100130080564,0.008796093022208,,,,,,,,,staircase,484.8073736000806,174.0,2.0,72.0,0.008796093022208,,,,1,1.2034831000491977,1.405338300159201,,,,0,,,,80621,60.0,
,,,0,56,-1,0,0.0969100130080564,0.008796093022208,,,,,,,,,staircase,490.42980180005543,126.0,2.0,72.0,0.008796093022208,,,,0,1.33243879978545,1.563772999914363,,,,0,,,,80621,60.0,
,,,0,57,-1,0,0.0969100130080564,0.010995116277760002,,,,,,,,,staircase,496.08443500008434,132.0,2.0,72.0,0.010995116277760002,,,,1,1.2861367999576032,1.4528462998569012,,,,0,,,,80621,60.0,
,,,0,58,-1,0,0.0969100130080564,0.010995116277760002,,,,,,,,,staircase,501.052328400081,174.0,2.0,72.0,0.010995116277760002,,,,6,1.5203017999883741,1.7038634000346065,,,,1,,,,80621,60.0,
,,,0,59,-1,0,0.0969100130080564,0.008796093022208,,,,,,,,,staircase,506.97358209989034,150.0,2.0,72.0,0.008796093022208,,,,7,1.5543736000545323,1.9380946999881417,,,,0,,,,80621,60.0,
,,,0,60,-1,0,0.0969100130080564,0.008796093022208,,,,,,,,,staircase,512.7275749999098,132.0,2.0,72.0,0.008796093022208,,,,6,0.9490970000624657,1.1657863999716938,,,,0,,,,80621,60.0,
,,,0,61,-1,0,0.0969100130080564,0.010995116277760002,,,,,,,,,staircase,517.9700835000258,162.0,2.0,72.0,0.010995116277760002,,,,1,1.5543470999691635,1.7548575999680907,,,,0,,,,80621,60.0,
,,,0,62,-1,0,0.0969100130080564,0.010995116277760002,,,,,,,,,staircase,523.7867101999,162.0,2.0,72.0,0.010995116277760002,,,,0,1.1887256999034435,1.358060299884528,,,,1,,,,80621,60.0,
,,,0,63,-1,0,0.0969100130080564,0.008796093022208,,,,,,,,,staircase,529.1764573999681,150.0,2.0,72.0,0.008796093022208,,,,1,1.2715018999297172,1.4391706997994334,,,,1,,,,80621,60.0,
,,,0,64,-1,0,0.0969100130080564,0.007036874417766401,,,,,,,,,staircase,534.4292846999597,144.0,2.0,72.0,0.007036874417766401,,,,6,1.0586294000968337,1.2111510001122952,,,,1,,,,80621,60.0,
,,,0,65,-1,0,0.0969100130080564,0.00562949953421312,,,,,,,,,staircase,540.0204870998859,132.0,2.0,72.0,0.00562949953421312,,,,7,1.1803991000633687,1.363017699914053,,,,1,,,,80621,60.0,
,,,0,66,-1,0,0.0969100130080564,0.004503599627370496,,,,,,,,,staircase,544.9038060000166,138.0,2.0,72.0,0.004503599627370496,,,,1,1.1349025999661535,1.2691713001113385,,,,0,,,,80621,60.0,
,,,0,67,-1,0,0.0969100130080564,0.004503599627370496,,,,,,,,,staircase,549.8063437999226,174.0,2.0,72.0,0.004503599627370496,,,,6,1.2234778001438826,1.3899324000813067,,,,0,,,,80621,60.0,
,,,0,68,-1,0,0.0969100130080564,0.00562949953421312,,,,,,,,,staircase,555.4261334000621,144.0,2.0,72.0,0.00562949953421312,,,,0,1.2469227998517454,1.3989361999556422,,,,0,,,,80621,60.0,
,,,0,69,-1,0,0.0969100130080564,0.00562949953421312,,,,,,,,,staircase,561.122680200031,168.0,2.0,72.0,0.00562949953421312,,,,1,1.1516734999604523,1.2690441999584436,,,,1,,,,80621,60.0,
,,,0,-1,-1,0,,,materials/instructions\11_session_start.png,566.5582800998818,577.5754307999741,0,10.900020699948072,11.014993399847299,0.013774899998679757,11.0229348000139,,,,,,,,,,,,,,,,,,,,80621,60.0,
,,,0,-1,-1,0,,,,,,,,,,,,,,,,,,,,,,,,,,,0.00965745043140772,,,80621,60.0,
-77,77,90,0,0,0,7,,,,,,,,,,,session,577.5913929999806,174.0,2.0,72.0,0.00965745043140772,5,3.095281600020826,3.2784775998443365,1,1.2329035999719054,1.3333326000720263,0,1.3170856998767704,1.4179984999354929,,,48.0,51.0,80621,60.0,
77,-77,90,0,1,1,11,,,,,,,,,,,session,590.0594716998748,162.0,2.0,72.0,0.00965745043140772,2,2.017124000005424,2.250658999895677,0,1.3687891000881791,1.5522966999560595,0,0.5848493000958115,0.768311999971047,,,63.0,60.0,80621,60.0,
-77,-77,0,0,2,2,13,,,,,,,,,,,session,600.8135206999723,126.0,2.0,72.0,0.00965745043140772,3,1.247527299914509,1.3985744998790324,0,1.3523145001381636,1.5360850000288337,0,0.35354339983314276,0.5855951998382807,,,51.0,48.0,80621,60.0,
-77,77,-45,0,3,3,4,,,,,,,,,,,session,610.1209710999392,126.0,2.0,72.0,0.00965745043140772,2,1.9200878001283854,2.1046359001193196,1,0.5069148999173194,0.6571758000645787,0,0.3517841000575572,0.5518857000861317,,,48.0,66.0,80621,60.0,
77,-77,-45,0,4,4,8,,,,,,,,,,,session,618.875791199971,150.0,2.0,72.0,0.1,4,0.6795888000633568,0.8631454999558628,1,1.1250273000914603,1.2962392999324948,6,1.367056000046432,1.547642899909988,,,63.0,66.0,80621,60.0,
77,77,0,0,5,5,1,,,,,,,,,,,session,628.7048637999687,126.0,2.0,72.0,0.00965745043140772,2,1.0476202999707311,1.184568300144747,0,0.37056419998407364,0.48744539986364543,0,0.3856528999749571,0.6198137998580933,,,54.0,57.0,80621,60.0,
-77,77,45,0,6,6,6,,,,,,,,,,,session,636.4067146999296,180.0,2.0,72.0,0.1,2,0.7517503001727164,0.902000900125131,7,1.348887899890542,1.5513289999216795,6,0.5016350999940187,0.6683753000106663,,,69.0,66.0,80621,60.0,
-77,77,0,0,7,7,5,,,,,,,,,,,session,646.2405425999314,150.0,2.0,72.0,0.1,2,0.7602147001307458,0.9438867999706417,0,0.9845358999446034,1.1679984000511467,6,0.43454360007308424,0.6002929001115263,,,63.0,63.0,80621,60.0,
-77,-77,45,0,8,8,14,,,,,,,,,,,session,655.5399791998789,144.0,2.0,72.0,0.00965745043140772,2,1.352067600004375,1.5023223999887705,0,0.3890186999924481,0.5575687000527978,0,0.32939499989151955,0.4793825999367982,,,57.0,51.0,80621,60.0,
-77,-77,-45,0,9,9,12,,,,,,,,,,,session,663.7126136999577,138.0,2.0,72.0,0.00965745043140772,2,1.103912099963054,1.2365281998645514,1,0.5618936000391841,0.6954275001771748,0,0.31572970002889633,0.483373099938035,,,66.0,57.0,80621,60.0,
77,-77,0,0,10,10,9,,,,,,,,,,,session,671.957721099956,126.0,2.0,72.0,0.1,4,0.4506425999570638,0.6006366999354213,0,1.0341492998413742,1.1853860998526216,6,1.800574699882418,1.9508273000828922,,,69.0,51.0,80621,60.0,
77,77,45,0,11,11,2,,,,,,,,,,,session,681.2575224000029,168.0,2.0,72.0,0.00965745043140772,3,1.0001697998959571,1.1679127998650074,0,0.8701776000671089,1.170858999947086,1,0.6627058000303805,0.8449879998806864,,,54.0,60.0,80621,60.0,
77,77,90,0,12,12,3,,,,,,,,,,,session,690.607759000035,174.0,2.0,72.0,0.00965745043140772,2,1.1474770000204444,1.3308369000442326,0,0.40254569984972477,0.5867570999544114,0,0.3323057000525296,0.49809399992227554,,,54.0,48.0,80621,60.0,
-77,-77,90,0,13,13,15,,,,,,,,,,,session,699.5378882999066,174.0,2.0,72.0,0.00965745043140772,5,2.0694670998491347,2.2190181999467313,0,0.5887222001329064,0.771807000041008,0,0.3781463000923395,0.5782282999716699,,,72.0,63.0,80621,60.0,
77,-77,45,0,14,14,10,,,,,,,,,,,session,709.7118667999748,162.0,2.0,72.0,0.00965745043140772,4,1.3731683001387864,1.7443343000486493,0,1.0484092000406235,1.23271630005911,0,0.3291849000379443,0.4963099998421967,,,51.0,60.0,80621,60.0,
77,77,-45,0,15,15,0,,,,,,,,,,,session,719.7079928999301,126.0,2.0,72.0,0.00965745043140772,5,1.1642473000101745,1.330454400042072,0,0.7544619000982493,0.904569000005722,0,1.0502271000295877,1.2169645000249147,,,51.0,48.0,80621,60.0,
77,77,45,1,0,16,2,,,,,,,,,,,session,728.3775734999217,150.0,2.0,72.0,0.00965745043140772,2,1.283076599938795,1.849819199880585,0,0.34962660004384816,0.4994792998768389,0,0.33327120007015765,0.4831624000798911,,,66.0,60.0,80621,60.0,
77,-77,-45,1,1,17,8,,,,,,,,,,,session,737.2754325000569,162.0,2.0,72.0,0.00965745043140772,2,1.8995562000200152,2.0667050001211464,1,0.3171623998787254,0.483783699804917,0,0.36676230002194643,0.5504033002071083,,,66.0,63.0,80621,60.0,
77,77,0,1,2,18,1,,,,,,,,,,,session,746.6754922000691,144.0,2.0,72.0,0.00965745043140772,3,1.2517103001009673,1.4684868999756873,0,0.376769200200215,0.5742239002138376,0,0.3167846999131143,0.5170852998271585,,,69.0,66.0,80621,60.0,
77,77,90,1,3,19,3,,,,,,,,,,,session,755.3304735000711,156.0,2.0,72.0,0.00965745043140772,2,1.2809762000106275,1.448145299917087,0,0.40033539989963174,0.617284799925983,0,0.33212559996172786,0.5331915998831391,,,54.0,57.0,80621,60.0,
77,77,90,1,3,19,3,,,materials/instructions\12_break.png,764.478085800074,766.3711725999601,0,1.7265975000336766,1.8914434001781046,0.0122382000554353,1.89904520008713,,,,,,,,,,,,,,,,,,,,80621,60.0,
-77,-77,90,1,4,20,15,,,,,,,,,,,session,766.3875330998562,132.0,2.0,72.0,0.00965745043140772,2,1.6386522999964654,1.822211500024423,0,1.071264100028202,1.221383900148794,0,0.3195529000367969,0.46951219998300076,,,63.0,63.0,80621,60.0,
-77,77,90,1,5,21,7,,,,,,,,,,,session,775.6460601000581,150.0,2.0,72.0,0.00965745043140772,5,1.9071892001666129,2.146687800064683,0,0.5544447998981923,0.73769689979963,0,0.6360820000991225,0.8691940000280738,,,63.0,54.0,80621,60.0,
-77,77,45,1,6,22,6,,,,,,,,,,,session,785.6397289999295,168.0,2.0,72.0,0.00965745043140772,2,1.3323899998795241,1.5491719997953624,1,0.4708000000100583,0.6384495999664068,0,0.4169123999308795,0.600572400027886,,,63.0,60.0,80621,60.0,
77,-77,90,1,7,23,11,,,,,,,,,,,session,794.7270112999249,168.0,2.0,72.0,0.00965745043140772,3,3.0109023000113666,3.5111404000781476,0,0.3704161001369357,0.5501677000429481,0,0.43687500013038516,0.6035518001299351,,,51.0,72.0,80621,60.0,
77,77,-45,1,8,24,0,,,,,,,,,,,session,805.7096983999945,132.0,2.0,72.0,0.00965745043140772,2,1.4837764000985771,1.6996261000167578,0,0.38618419994600117,0.6196965998969972,0,0.3872394000645727,0.6040452001616359,,,51.0,63.0,80621,60.0,
-77,-77,0,1,9,25,13,,,,,,,,,,,session,814.208057800075,168.0,2.0,72.0,0.00965745043140772,2,1.6016883000265807,1.7860592999495566,0,0.3701925000641495,0.5870513000991195,0,0.33058839989826083,0.5309866000898182,,,72.0,60.0,80621,60.0,
-77,-77,45,1,10,26,14,,,,,,,,,,,session,823.5590208000503,174.0,2.0,72.0,0.00965745043140772,5,1.2007607999257743,1.3851755999494344,0,0.43707549991086125,0.9726235000416636,0,0.5328331000637263,0.8001796999014914,,,72.0,48.0,80621,60.0,
-77,-77,-45,1,11,27,12,,,,,,,,,,,session,833.4569260000717,162.0,2.0,72.0,0.1,3,0.5032371999695897,0.7691806999500841,1,1.0668164999224246,1.2169313000049442,1,1.2205453000497073,1.4206127000506967,,,54.0,72.0,80621,60.0,
77,-77,0,1,12,28,9,,,,,,,,,,,session,843.0989778998774,144.0,2.0,72.0,0.00965745043140772,2,0.8603187999688089,1.0268886999692768,0,0.635034600039944,0.8526385999284685,0,0.36640359996818006,0.5998144999612123,,,54.0,72.0,80621,60.0,
-77,77,0,1,13,29,5,,,,,,,,,,,session,852.1899691999424,168.0,2.0,72.0,0.00965745043140772,3,1.0794178999494761,1.2627724998164922,0,0.35879730014130473,0.573726800037548,0,0.7033584001474082,0.8699811000842601,,,51.0,54.0,80621,60.0,
-77,77,-45,1,14,30,4,,,,,,,,,,,session,860.895964599913,138.0,2.0,72.0,0.00965745043140772,2,1.2176562000531703,1.3677280000410974,0,0.3092455000150949,0.5680448999628425,0,1.013770299963653,1.2346266000531614,,,48.0,57.0,80621,60.0,
77,-77,45,1,15,31,10,,,,,,,,,,,session,869.5757397999987,150.0,2.0,72.0,0.00965745043140772,2,1.199714600108564,1.4831611001864076,0,0.48946049995720387,0.7593264000024647,0,0.3994787000119686,0.6834161998704076,,,72.0,51.0,80621,60.0,
-77,-77,90,2,0,32,15,,,,,,,,,,,session,878.5249866000377,180.0,2.0,72.0,0.00965745043140772,2,1.1919759998563677,1.3921572000253946,0,0.37367579992860556,0.5736451998818666,0,0.6652096000034362,0.8975785998627543,,,48.0,48.0,80621,60.0,
-77,-77,-45,2,1,33,12,,,,,,,,,,,session,887.4471298998687,138.0,2.0,72.0,0.00965745043140772,2,1.5277541999239475,1.6796524000819772,0,1.236657400149852,1.4374246001243591,0,0.31789569999091327,0.49953869986347854,,,54.0,69.0,80621,60.0,
77,-77,0,2,2,34,9,,,,,,,,,,,session,897.508436899865,150.0,2.0,72.0,0.00965745043140772,5,1.4142801999114454,1.6513735998887569,0,0.5921008000150323,0.7772830000612885,0,0.3673417998943478,0.5516673000529408,,,48.0,72.0,80621,60.0,
77,77,90,2,3,35,3,,,,,,,,,,,session,906.4291805999819,138.0,2.0,72.0,0.00965745043140772,2,0.9366770000196993,1.136685200035572,0,0.3859494999051094,0.5646639000624418,0,0.38586130016483366,0.6024674000218511,,,69.0,63.0,80621,60.0,
77,77,-45,2,4,36,0,,,,,,,,,,,session,914.6933248999994,180.0,2.0,72.0,0.00965745043140772,2,0.7467592000029981,0.9468855001032352,0,0.3712218999862671,0.5547571000643075,0,0.283393100136891,0.4501553999725729,,,48.0,48.0,80621,60.0,
77,77,0,2,5,37,1,,,,,,,,,,,session,922.7093338000122,150.0,2.0,72.0,0.00965745043140772,2,0.9393867999315262,1.1032566998619586,0,0.5795009001158178,0.6773539001587778,0,0.42122199991717935,0.5548828998580575,,,48.0,72.0,80621,60.0,
-77,77,-45,2,6,38,4,,,,,,,,,,,session,930.9822044998873,156.0,2.0,72.0,0.00965745043140772,3,2.61164170014672,2.9593520001508296,0,0.45059850020334125,0.6663007000461221,0,0.33196740015409887,0.5318517000414431,,,48.0,60.0,80621,60.0,
77,-77,-45,2,7,39,8,,,,,,,,,,,session,941.475714799948,132.0,2.0,72.0,0.00965745043140772,2,0.9188639000058174,1.1021320999134332,0,0.38816810003481805,0.5882778000086546,0,0.3325643998105079,0.5507970999460667,,,60.0,72.0,80621,60.0,
77,-77,-45,2,7,39,8,,,materials/instructions\12_break.png,949.5905746000353,951.0444547000807,0,1.2682832998689264,1.4517508998978883,0.022861599922180176,1.4593509999103844,,,,,,,,,,,,,,,,,,,,80621,60.0,
-77,77,45,2,8,40,6,,,,,,,,,,,session,951.0597460998688,174.0,2.0,72.0,0.00965745043140772,2,1.0169494999572635,1.5722141000442207,0,0.45476170000620186,0.6047393998596817,0,0.349996600067243,0.5331425000913441,,,63.0,57.0,80621,60.0,
-77,-77,0,2,9,41,13,,,,,,,,,,,session,960.1924624000676,156.0,2.0,72.0,0.00965745043140772,2,0.8678758000023663,1.0517088000196964,0,0.36851849989034235,0.5184545998927206,0,0.46698440006002784,0.6346680000424385,,,60.0,72.0,80621,60.0,
77,-77,45,2,10,42,10,,,,,,,,,,,session,968.6604065999854,150.0,2.0,72.0,0.00965745043140772,2,0.7555233000312,0.9557048999704421,0,0.3872058999259025,0.5874099000357091,0,0.33654439984820783,0.4866535000037402,,,60.0,63.0,80621,60.0,
77,-77,90,2,11,43,11,,,,,,,,,,,session,976.6996128000319,150.0,2.0,72.0,0.00965745043140772,2,0.44632699992507696,0.5130584998987615,0,0.5317287999205291,0.6984353000298142,0,0.3815686001908034,0.5815410001669079,,,60.0,60.0,80621,60.0,
77,77,45,2,12,44,2,,,,,,,,,,,session,985.0247470000759,126.0,2.0,72.0,0.00965745043140772,2,0.9534444999881089,1.1536389000248164,0,0.8740676001179963,1.3909781000111252,0,0.4547148998826742,0.75465719983913,,,51.0,48.0,80621,60.0,
-77,77,90,2,13,45,7,,,,,,,,,,,session,993.5135256999638,150.0,2.0,72.0,0.00965745043140772,2,1.032464100047946,1.199276699917391,0,0.18583620013669133,0.35266820015385747,0,0.9281840999610722,1.0800264000426978,,,72.0,69.0,80621,60.0,
-77,-77,45,2,14,46,14,,,,,,,,,,,session,1002.4447947998997,156.0,2.0,72.0,0.00965745043140772,5,1.2814229000359774,1.4822164999786764,0,0.7698782999068499,1.0676594998221844,0,0.5850941999815404,0.8028275999240577,,,48.0,63.0,80621,60.0,
-77,77,0,2,15,47,5,,,,,,,,,,,session,1011.7103470000438,144.0,2.0,72.0,0.00965745043140772,2,1.2204118999652565,1.3870199997909367,0,0.6199123000260442,0.7858074000105262,0,0.417327499948442,0.6174151999875903,,,66.0,69.0,80621,60.0,
-77,77,0,3,0,48,5,,,,,,,,,,,session,1020.5997591998894,126.0,2.0,72.0,0.00965745043140772,2,1.0306448000483215,1.2109819001052529,0,0.9120863999705762,0.9621030001435429,0,0.011435299878939986,0.013351300032809377,,,63.0,69.0,80621,60.0,
-77,77,-45,3,1,49,4,,,,,,,,,,,session,1029.0714855999686,138.0,2.0,72.0,0.00965745043140772,2,1.0664339000359178,1.2655927001032978,0,0.4702713000588119,0.7529017000924796,0,0.4001154999714345,0.6169318999163806,,,69.0,63.0,80621,60.0,
-77,-77,-45,3,2,50,12,,,,,,,,,,,session,1037.6624121998902,126.0,2.0,72.0,0.00965745043140772,5,1.416582099860534,1.633471200009808,0,0.38664470007643104,0.601230800151825,0,0.29687039996497333,0.4760177999269217,,,60.0,48.0,80621,60.0,
-77,77,90,3,3,51,7,,,,,,,,,,,session,1045.723133099964,150.0,2.0,72.0,0.00965745043140772,3,0.6841802999842912,1.2850205998402089,0,0.38814610010012984,0.5735941000748426,0,0.546388799790293,0.7642942999955267,,,51.0,72.0,80621,60.0,
-77,-77,90,3,4,52,15,,,,,,,,,,,session,1054.4608213999309,126.0,2.0,72.0,0.00965745043140772,2,0.9366110998671502,1.1365540998522192,1,0.36760960007086396,0.5190034999977797,0,0.31424929993227124,0.4980664998292923,,,54.0,57.0,80621,60.0,
77,77,-45,3,5,53,0,,,,,,,,,,,session,1062.0143965999596,168.0,2.0,72.0,0.00965745043140772,2,0.9754059999249876,1.1092066999990493,1,0.9266886999830604,1.1269002999179065,0,0.447437500115484,0.5981719000265002,,,57.0,57.0,80621,60.0,
77,77,45,3,6,54,2,,,,,,,,,,,session,1071.1259260999504,126.0,2.0,72.0,0.00965745043140772,2,1.0513649999629706,1.2014440998900682,0,0.3883901000954211,0.5209550000727177,0,0.3356397000607103,0.5055704999249429,,,69.0,63.0,80621,60.0,
-77,-77,45,3,7,55,14,,,,,,,,,,,session,1079.0964539998677,126.0,2.0,72.0,0.1,3,0.4867587999906391,0.6708510001190007,7,1.8386977999471128,1.9889314000029117,6,0.30095230019651353,0.4343862000387162,,,51.0,57.0,80621,60.0,
77,-77,-45,3,8,56,8,,,,,,,,,,,session,1087.534947999986,150.0,2.0,72.0,0.00965745043140772,5,2.17595830000937,2.325904800090939,1,1.516972100129351,1.666983800008893,0,0.34856340009719133,0.48224570020101964,,,54.0,66.0,80621,60.0,
77,77,0,3,9,57,1,,,,,,,,,,,session,1098.593556900043,126.0,2.0,72.0,0.00965745043140772,2,1.1872890999075025,1.3061946998350322,0,1.1698700999841094,1.303273000055924,0,0.3061577999033034,0.4561812998726964,,,63.0,51.0,80621,60.0,
77,-77,0,3,10,58,9,,,,,,,,,,,session,1107.100483899936,132.0,2.0,72.0,0.1,2,1.2839365999680012,1.4505890000145882,0,0.8040691998321563,0.97082329983823,0,0.43239909992553294,0.5824575999286026,,,66.0,60.0,80621,60.0,
77,-77,90,3,11,59,11,,,,,,,,,,,session,1116.0741906000767,180.0,2.0,72.0,0.00965745043140772,2,0.8565267999656498,1.0056700999848545,0,0.5068149000871927,0.6569202002137899,0,0.37099960003979504,0.5044162999838591,,,57.0,51.0,80621,60.0,
77,-77,90,3,11,59,11,,,materials/instructions\12_break.png,1124.520660100039,1125.8111600999255,0,1.121264300076291,1.2883743999991566,0.010309699922800064,1.2962555999401957,,,,,,,,,,,,,,,,,,,,80621,60.0,
-77,-77,0,3,12,60,13,,,,,,,,,,,session,1125.8266030000523,150.0,2.0,72.0,0.00965745043140772,4,1.284131099935621,2.034484399948269,7,1.9340058001689613,2.0674851001240313,0,0.30100440001115203,0.4863737002015114,,,51.0,66.0,80621,60.0,
77,-77,45,3,13,61,10,,,,,,,,,,,session,1136.3291356998961,138.0,2.0,72.0,0.00965745043140772,2,0.9075362998992205,1.093863199930638,0,0.40173459984362125,0.6019303998909891,0,0.38216880010440946,0.5823399999644607,,,54.0,51.0,80621,60.0,
77,77,90,3,14,62,3,,,,,,,,,,,session,1144.1106243999675,168.0,2.0,72.0,0.00965745043140772,2,1.6026417999528348,1.8187160999514163,0,0.28799019986763597,0.48787609999999404,0,0.38720920006744564,0.5874413000419736,,,72.0,54.0,80621,60.0,
-77,77,45,3,15,63,6,,,,,,,,,,,session,1153.3687515000347,180.0,2.0,72.0,0.00965745043140772,2,1.265238800086081,1.4320382000878453,0,0.8363669000100344,1.0372476000338793,0,1.1805426999926567,1.432094399817288,,,69.0,54.0,80621,60.0,
77,77,90,4,0,64,3,,,,,,,,,,,session,1164.4431429000106,162.0,2.0,72.0,0.00965745043140772,2,1.0863721000496298,1.2389193000271916,0,0.3326968001201749,0.5003953000996262,0,0.8150577999185771,1.0147333999630064,,,63.0,54.0,80621,60.0,
-77,77,90,4,1,65,7,,,,,,,,,,,session,1173.3017464000732,180.0,2.0,72.0,0.00965745043140772,2,0.544798799790442,0.7261192000005394,0,0.4687532000243664,0.652081900043413,0,0.2848514001816511,0.45132140000350773,,,57.0,54.0,80621,60.0,
-77,77,45,4,2,66,6,,,,,,,,,,,session,1181.9093345999718,138.0,2.0,72.0,0.00965745043140772,2,0.8018676999490708,1.269607099937275,0,0.47187280002981424,0.6718596999999136,0,0.8703721999190748,1.0370592998806387,,,66.0,69.0,80621,60.0,
-77,77,0,4,3,67,5,,,,,,,,,,,session,1190.878993399907,126.0,2.0,72.0,0.00965745043140772,5,1.2167543999385089,1.3806851000990719,0,0.011478699976578355,0.15187909989617765,0,0.3030019998550415,0.5786847998388112,,,60.0,48.0,80621,60.0,
77,77,0,4,4,68,1,,,,,,,,,,,session,1198.411740399897,162.0,2.0,72.0,0.00965745043140772,5,0.962998199975118,1.163105099927634,0,0.3215370001271367,0.6062037001829594,0,0.48406370007433,0.7177152000367641,,,48.0,66.0,80621,60.0,
77,-77,-45,4,5,69,8,,,,,,,,,,,session,1207.495910299942,132.0,2.0,72.0,0.00965745043140772,2,1.0347439001780003,1.2505147000774741,0,0.4214839998167008,0.6409216998144984,0,1.3063350000884384,1.47309310012497,,,57.0,57.0,80621,60.0,
-77,-77,0,4,6,70,13,,,,,,,,,,,session,1216.400909600081,150.0,2.0,72.0,0.00965745043140772,2,0.9913081000559032,1.2135065000038594,0,0.39899359992705286,0.6614517997950315,0,0.331681199837476,0.583280999911949,,,48.0,63.0,80621,60.0,
-77,-77,90,4,7,71,15,,,,,,,,,,,session,1224.6624121998902,168.0,2.0,72.0,0.00965745043140772,2,0.9191910000517964,1.1353714000433683,0,0.398037200095132,0.665095099946484,0,0.01178910001181066,0.3534942998085171,,,60.0,63.0,80621,60.0,
77,77,45,4,8,72,2,,,,,,,,,,,session,1233.1113271999639,132.0,2.0,72.0,0.00965745043140772,2,0.7889235999900848,0.8730179998092353,0,0.755699799861759,0.9232451000716537,0,0.49000050011090934,0.6411354001611471,,,72.0,66.0,80621,60.0,
77,77,-45,4,9,73,0,,,,,,,,,,,session,1241.486723100068,126.0,2.0,72.0,0.00965745043140772,2,0.6637512999586761,0.7937084999866784,0,0.41763310017995536,0.5859756001736969,0,0.34934139996767044,0.586202499922365,,,66.0,72.0,80621,60.0,
77,-77,90,4,10,74,11,,,,,,,,,,,session,1249.9647418998647,144.0,2.0,72.0,0.00965745043140772,2,0.9013717998750508,1.0515002999454737,0,0.32115380000323057,0.4901839999947697,0,0.3178028000984341,0.5012014000676572,,,69.0,69.0,80621,60.0,
-77,77,-45,4,11,75,4,,,,,,,,,,,session,1258.164015499875,156.0,2.0,72.0,0.00965745043140772,5,0.817549099912867,1.0012393000070006,0,0.4138980000279844,0.6558227001223713,0,0.3658517999574542,0.6113255000673234,,,72.0,69.0,80621,60.0,
77,-77,0,4,12,76,9,,,,,,,,,,,session,1266.841922099935,180.0,2.0,72.0,0.1,4,0.3196243999991566,0.4692170999478549,0,0.572231899946928,0.8044435998890549,1,1.984689800068736,2.201475099893287,,,66.0,69.0,80621,60.0,
-77,-77,45,4,13,77,14,,,,,,,,,,,session,1277.0786097999662,150.0,2.0,72.0,0.00965745043140772,4,1.0937304000835866,1.4250324999447912,0,0.5041849999688566,0.7377243000082672,1,0.9859329999890178,1.2186779999174178,,,57.0,54.0,80621,60.0,
-77,-77,-45,4,14,78,12,,,,,,,,,,,session,1286.2689701998606,126.0,2.0,72.0,0.00965745043140772,3,1.632416000124067,1.8196088999975473,0,0.33449069992639124,0.5011765998788178,0,0.2975480000022799,0.48056749999523163,,,60.0,60.0,80621,60.0,
77,-77,45,4,15,79,10,,,,,,,,,,,session,1295.193919699872,180.0,2.0,72.0,0.00965745043140772,2,1.488096100045368,1.6380924999248236,0,0.42028299998492,0.5897812999319285,0,0.4188204000238329,0.568906300002709,,,69.0,63.0,80621,60.0,
77,-77,45,4,15,79,10,,,materials/instructions\12_break.png,1304.6653092999477,1306.198728099931,0,1.3978689000941813,1.5313011000398546,0.019266300136223435,1.5391965999733657,,,,,,,,,,,,,,,,,,,,80621,60.0,
77,77,0,5,0,80,1,,,,,,,,,,,session,1306.214259200031,144.0,2.0,72.0,0.00965745043140772,2,1.2302527998108417,1.3451209999620914,0,0.40024170000106096,0.5144867000635713,0,0.4155618001241237,0.5659278000239283,,,51.0,72.0,80621,60.0,
-77,77,90,5,1,81,7,,,,,,,,,,,session,1314.9431393998675,126.0,2.0,72.0,0.00965745043140772,2,1.616071900120005,1.782799300039187,0,0.011768799973651767,0.01367080002091825,0,0.8479309999383986,1.1148632001131773,,,66.0,51.0,80621,60.0,
77,77,-45,5,2,82,0,,,,,,,,,,,session,1323.3647817000747,138.0,2.0,72.0,0.00965745043140772,2,0.7466136999428272,0.9145623999647796,0,0.38530780002474785,0.5184437001589686,0,0.3862022999674082,0.6532008000649512,,,51.0,60.0,80621,60.0,
-77,-77,-45,5,3,83,12,,,,,,,,,,,session,1331.053274200065,162.0,2.0,72.0,0.1,3,0.37894999980926514,0.5291273999027908,1,0.580676999874413,0.7640529999043792,6,2.2980615999549627,2.446807599859312,,,72.0,57.0,80621,60.0,
77,-77,-45,5,4,84,8,,,,,,,,,,,session,1341.6931412999984,180.0,2.0,72.0,0.00965745043140772,2,0.5867351000197232,0.7199186000507325,0,0.5712977999355644,0.8046134000178427,0,0.4660815999377519,0.6661179000511765,,,66.0,72.0,80621,60.0,
77,77,45,5,5,85,2,,,,,,,,,,,session,1350.620393200079,150.0,2.0,72.0,0.00965745043140772,2,1.0838417999912053,1.2799605999607593,0,0.47172480006702244,0.6383362000342458,0,0.48526749992743134,0.652061500120908,,,57.0,51.0,80621,60.0,
-77,-77,0,5,6,86,13,,,,,,,,,,,session,1359.577460899949,132.0,2.0,72.0,0.1,3,0.4640985999722034,0.647126599913463,0,0.4023641999810934,0.5692365998402238,1,1.502292500110343,1.6705787000246346,,,54.0,63.0,80621,60.0,
-77,77,-45,5,7,87,4,,,,,,,,,,,session,1368.0659394999966,180.0,2.0,72.0,0.00965745043140772,2,0.31817089999094605,0.4693193999119103,0,0.3682911000214517,0.5517700999043882,0,0.38296529999934137,0.5609189001843333,,,63.0,63.0,80621,60.0,
77,-77,0,5,8,88,9,,,,,,,,,,,session,1376.208547099959,132.0,2.0,72.0,0.00965745043140772,2,0.8609841000288725,1.0443448999430984,0,0.42300169984810054,0.6065179000142962,0,0.3877703999169171,0.6357734999619424,,,48.0,72.0,80621,60.0,
77,77,90,5,9,89,3,,,,,,,,,,,session,1384.4453852998558,132.0,2.0,72.0,0.00965745043140772,2,1.0348004000261426,1.184893999947235,0,0.48936129990033805,0.7228220999240875,0,0.5874440998304635,0.8548655000049621,,,63.0,72.0,80621,60.0,
-77,-77,90,5,10,90,15,,,,,,,,,,,session,1393.101105199894,168.0,2.0,72.0,0.00965745043140772,2,0.7757715999614447,1.0309840999543667,0,0.4645726999733597,0.685673100175336,0,0.39980469993315637,0.6021495999302715,,,48.0,60.0,80621,60.0,
77,-77,90,5,11,91,11,,,,,,,,,,,session,1401.495888599893,168.0,2.0,72.0,0.1,4,0.785105099901557,0.9517204000148922,6,1.0534214000217617,1.2035266999155283,6,1.6541240999940783,1.7875992998015136,,,72.0,60.0,80621,60.0,
77,-77,45,5,12,92,10,,,,,,,,,,,session,1411.8990788999945,168.0,2.0,72.0,0.00965745043140772,2,0.9838182998355478,1.134808799950406,0,0.3383206999860704,0.4882189999334514,0,0.344837199896574,0.5245358999818563,,,72.0,69.0,80621,60.0,
-77,77,45,5,13,93,6,,,,,,,,,,,session,1420.659326999914,168.0,2.0,72.0,0.1,2,0.569991699885577,0.7379028000868857,6,1.1882797998841852,1.288238599896431,1,1.4367041001096368,1.5869216001592577,,,51.0,48.0,80621,60.0,
-77,-77,45,5,14,94,14,,,,,,,,,,,session,1430.4322995999828,126.0,2.0,72.0,0.00965745043140772,2,1.5052552002016455,1.6724287001416087,0,0.9910289000254124,1.1250231999438256,0,1.3339084999170154,1.5008368999697268,,,54.0,60.0,80621,60.0,
-77,77,0,5,15,95,5,,,,,,,,,,,session,1440.1709433998913,162.0,2.0,72.0,0.00965745043140772,2,0.3994910998735577,0.5794373999815434,0,0.385185900144279,0.5695565000642091,0,0.48833369999192655,0.6883630999363959,,,69.0,48.0,80621,60.0,
-77,-77,0,6,0,96,13,,,,,,,,,,,session,1448.7823967998847,150.0,2.0,72.0,0.00965745043140772,2,1.2847897000610828,1.4523277000989765,0,1.0882049999199808,1.2382713998667896,0,0.4197206001263112,0.5876136000733823,,,51.0,66.0,80621,60.0,
-77,77,45,6,1,97,6,,,,,,,,,,,session,1457.967794999946,162.0,2.0,72.0,0.00965745043140772,2,1.1400437001138926,1.2901292000897229,0,0.650847400072962,0.7991220001131296,0,0.5832984999287874,0.7166683999821544,,,69.0,60.0,80621,60.0,
-77,-77,45,6,2,98,14,,,,,,,,,,,session,1467.0820830999874,126.0,2.0,72.0,0.1,3,0.40216529997996986,0.5687192999757826,7,2.6045051000546664,2.7547951999586076,1,1.135649000061676,1.2522764999885112,,,69.0,60.0,80621,60.0,
77,77,0,6,3,99,1,,,,,,,,,,,session,1477.3814719000366,138.0,2.0,72.0,0.00965745043140772,2,0.9420084999874234,1.1254417998716235,0,0.4178527998737991,0.5351149998605251,0,0.43247999995946884,0.5992831999901682,,,60.0,48.0,80621,60.0,
77,77,0,6,3,99,1,,,materials/instructions\12_break.png,1485.2154836999252,1486.459521499928,0,1.0532702000346035,1.2424006001092494,0.023686900036409497,1.2608890999108553,,,,,,,,,,,,,,,,,,,,80621,60.0,
-77,77,90,6,4,100,7,,,,,,,,,,,session,1486.4867507000454,144.0,2.0,72.0,0.1,2,0.49818220012821257,0.6638949001207948,6,0.737762400181964,0.8891282000113279,6,0.3333038999699056,0.5173770000692457,,,69.0,57.0,80621,60.0,
-77,-77,90,6,5,101,15,,,,,,,,,,,session,1494.928821099922,144.0,2.0,72.0,0.1,3,0.40179109992459416,0.5496787000447512,6,0.30465380009263754,0.47149110003374517,6,0.26981179998256266,0.41796469991095364,,,69.0,72.0,80621,60.0,
77,-77,90,6,6,102,11,,,,,,,,,,,session,1502.5860109999776,162.0,2.0,72.0,0.00965745043140772,2,0.9117964999750257,1.0387395999860018,0,0.3350345001090318,0.44630499999038875,0,0.31256279977969825,0.42555059981532395,,,54.0,63.0,80621,60.0,
-77,77,-45,6,7,103,4,,,,,,,,,,,session,1510.6448272999842,132.0,2.0,72.0,0.00965745043140772,2,0.4705298999324441,0.6541336998343468,0,0.41177450004033744,0.5284508001059294,0,0.3065751001704484,0.45516330003738403,,,51.0,63.0,80621,60.0,
-77,-77,-45,6,8,104,12,,,,,,,,,,,session,1517.8318586000241,180.0,2.0,72.0,0.00965745043140772,2,0.9907978000119328,1.1908402999397367,0,0.3215250000357628,0.5199883999302983,0,0.403023200109601,0.5689314000774175,,,66.0,63.0,80621,60.0,
77,77,45,6,9,105,2,,,,,,,,,,,session,1526.7025947000366,138.0,2.0,72.0,0.00965745043140772,2,1.030355399940163,1.2303442999254912,0,0.4176964000798762,0.6177814998663962,0,0.49116189987398684,0.6579398999456316,,,51.0,48.0,80621,60.0,
77,-77,-45,6,10,106,8,,,,,,,,,,,session,1534.7130134999752,132.0,2.0,72.0,0.00965745043140772,2,0.8200775000732392,0.9882364999502897,0,0.6197280001360923,0.7691357999574393,0,0.45177710009738803,0.6195758001413196,,,48.0,51.0,80621,60.0,
-77,77,0,6,11,107,5,,,,,,,,,,,session,1542.415197599912,162.0,2.0,72.0,0.00965745043140772,2,0.5381941001396626,0.6883113000076264,0,1.0691857000347227,1.220364399952814,0,0.3350649999920279,0.4347075999248773,,,54.0,54.0,80621,60.0,
77,-77,0,6,12,108,9,,,,,,,,,,,session,1550.7042463000398,138.0,2.0,72.0,0.00965745043140772,2,0.825062399962917,0.9947832999750972,0,0.4713466998655349,0.6532739999238402,0,0.5344486001413316,0.7176098001655191,,,48.0,54.0,80621,60.0,
77,77,90,6,13,109,3,,,,,,,,,,,session,1559.1121056999546,138.0,2.0,72.0,0.00965745043140772,2,1.014097800012678,1.1661356999538839,0,0.4241730999201536,0.5897818000521511,0,0.6866119001060724,0.8676871999632567,,,60.0,51.0,80621,60.0,
77,-77,45,6,14,110,10,,,,,,,,,,,session,1567.3499787000474,162.0,2.0,72.0,0.00965745043140772,2,0.4149370000232011,0.5650404999032617,0,0.1478868001140654,0.398974500130862,0,0.33190849982202053,0.526904699858278,,,63.0,69.0,80621,60.0,
77,77,-45,6,15,111,0,,,,,,,,,,,session,1575.2440323999617,162.0,2.0,72.0,0.00965745043140772,2,0.43365189991891384,0.5678398997988552,0,0.463066800031811,0.6629687000531703,0,0.4021562000270933,0.5521242001559585,,,72.0,48.0,80621,60.0,
-77,-77,0,7,0,112,13,,,,,,,,,,,session,1583.466473700013,132.0,2.0,72.0,0.1,3,0.5176026001572609,0.685225100023672,0,0.922006499953568,1.0887239999137819,6,0.3365131998434663,0.453335199970752,,,51.0,57.0,80621,60.0,
-77,77,0,7,1,113,5,,,,,,,,,,,session,1591.1510006999597,180.0,2.0,72.0,0.00965745043140772,2,0.3332132000941783,0.43303660000674427,0,0.34881619992665946,0.47692560008727014,0,0.3511191001161933,0.5010884001385421,,,63.0,72.0,80621,60.0,
77,-77,90,7,2,114,11,,,,,,,,,,,session,1599.2831425999757,132.0,2.0,72.0,0.00965745043140772,2,1.1183126999530941,1.4007164998911321,0,0.8548367999028414,1.0550353999715298,0,0.4671634000260383,0.6176139998715371,,,48.0,51.0,80621,60.0,
-77,77,90,7,3,115,7,,,,,,,,,,,session,1607.6636729000602,126.0,2.0,72.0,0.1,2,0.3896596000995487,0.5722489000763744,6,0.4018702998291701,0.5518636999186128,6,0.7673535000067204,0.9173498000018299,,,51.0,48.0,80621,60.0,
77,77,-45,7,4,116,0,,,,,,,,,,,session,1614.9023632998578,162.0,2.0,72.0,0.00965745043140772,2,0.7806140999309719,0.9356868998147547,0,0.012406100053340197,0.014425999950617552,0,0.6014620000496507,0.7809721999801695,,,60.0,57.0,80621,60.0,
77,-77,45,7,5,117,10,,,,,,,,,,,session,1623.0470658999402,174.0,2.0,72.0,0.00965745043140772,2,0.9684504000470042,1.1356393001042306,0,1.3884439000394195,1.5565058998763561,0,0.5202200999483466,0.6848260001279414,,,69.0,72.0,80621,60.0,
77,-77,-45,7,6,118,8,,,,,,,,,,,session,1633.1164758000523,144.0,2.0,72.0,0.00965745043140772,2,0.9666224999818951,1.1166207999922335,0,0.9700480999890715,1.1711528000887483,0,0.36612269980832934,0.5447085998021066,,,69.0,69.0,80621,60.0,
-77,-77,45,7,7,119,14,,,,,,,,,,,session,1642.1110602999106,138.0,2.0,72.0,0.00965745043140772,2,0.8496139999479055,1.016287700040266,0,0.012467600172385573,0.07256780005991459,0,0.3668387997895479,0.5319807999767363,,,69.0,63.0,80621,60.0,
-77,-77,45,7,7,119,14,,,materials/instructions\12_break.png,1649.8125143998768,1650.879059900064,0,0.8976715998724103,1.064469699980691,0.019094499992206693,1.072646499844268,,,,,,,,,,,,,,,,,,,,80621,60.0,
-77,-77,90,7,8,120,15,,,,,,,,,,,session,1650.8951459999662,150.0,2.0,72.0,0.00965745043140772,2,1.2722197000402957,1.4548160000704229,0,0.9194030999206007,1.0693884999491274,0,0.5042694001458585,0.6209911999758333,,,48.0,54.0,80621,60.0,
77,77,45,7,9,121,2,,,,,,,,,,,session,1659.6871181000024,156.0,2.0,72.0,0.1,5,0.37282950012013316,0.5439806999638677,7,0.36940040020272136,0.5189795000478625,6,0.3482495998032391,0.44818999990820885,,,66.0,60.0,80621,60.0,
77,77,0,7,10,122,1,,,,,,,,,,,session,1667.8792927998584,126.0,2.0,72.0,0.00965745043140772,2,1.604354300070554,1.7537073001731187,0,0.011887500062584877,0.013761099893599749,0,0.48477750015445054,0.6682784000877291,,,48.0,60.0,80621,60.0,
77,77,90,7,11,123,3,,,,,,,,,,,session,1675.666132699931,168.0,2.0,72.0,0.00965745043140772,2,0.8052157000638545,1.0048056000377983,0,0.2825488999951631,0.5328270997852087,0,0.31821499997749925,0.5348978999536484,,,69.0,60.0,80621,60.0,
77,-77,0,7,12,124,9,,,,,,,,,,,session,1684.1394134000875,144.0,2.0,72.0,0.1,4,0.4455299999099225,0.6149311000481248,0,2.003603700082749,2.187865100102499,6,0.3658062999602407,0.4824971000198275,,,51.0,72.0,80621,60.0,
-77,-77,-45,7,13,125,12,,,,,,,,,,,session,1694.014364700066,132.0,2.0,72.0,0.1,3,0.5634570000693202,0.7636537000071257,1,1.5562603001017123,1.723153700120747,6,0.4674694000277668,0.6339720000978559,,,51.0,54.0,80621,60.0,
-77,77,-45,7,14,126,4,,,,,,,,,,,session,1702.5381962000392,156.0,2.0,72.0,0.00965745043140772,2,1.1526045000646263,1.307691500056535,0,0.36407320015132427,0.5018941001035273,0,0.4352177002001554,0.5855419000145048,,,57.0,48.0,80621,60.0,
-77,77,45,7,15,127,6,,,,,,,,,,,session,1710.7507390000392,138.0,2.0,72.0,0.1,2,0.38211960019543767,0.5490380001720041,7,0.4191546000074595,0.5522608000319451,6,0.30152159999124706,0.4851861000061035,,,63.0,69.0,80621,60.0,
-77,-77,0,8,0,128,13,,,,,,,,,,,session,1718.2995207000058,144.0,2.0,72.0,0.00965745043140772,2,0.9040370997972786,1.0542582999914885,0,0.303479399997741,0.4697102999780327,0,0.4994950001128018,0.6505009999964386,,,66.0,66.0,80621,60.0,
77,77,45,8,1,129,2,,,,,,,,,,,session,1726.5218722999562,150.0,2.0,72.0,0.00965745043140772,2,0.8773219999857247,1.0437381998635828,0,0.4472125999163836,0.4996292998548597,0,0.011587199987843633,0.08112649992108345,,,66.0,63.0,80621,60.0,
77,-77,-45,8,2,130,8,,,,,,,,,,,session,1734.8616253000218,132.0,2.0,72.0,0.00965745043140772,2,0.8212119000963867,0.8545291000045836,0,0.40454999986104667,0.5737699000164866,0,0.4159468000289053,0.5847122999839485,,,54.0,66.0,80621,60.0,
-77,-77,90,8,3,131,15,,,,,,,,,,,session,1742.517917699879,144.0,2.0,72.0,0.00965745043140772,2,0.867385899880901,1.0007910998538136,0,0.5540988999418914,0.7371827999595553,0,0.39770379988476634,0.5802279999479651,,,72.0,63.0,80621,60.0,
77,77,-45,8,4,132,0,,,,,,,,,,,session,1750.9502387000248,180.0,2.0,72.0,0.1,5,0.5980825000442564,0.7481601999606937,1,1.400065500056371,1.598542399937287,6,0.4987016001250595,0.665466699982062,,,51.0,54.0,80621,60.0,
77,-77,0,8,5,133,9,,,,,,,,,,,session,1760.715775199933,150.0,2.0,72.0,0.00965745043140772,2,0.42008939990773797,0.5535977000836283,0,0.3360389000736177,0.5036237998865545,0,0.32041729986667633,0.5226225999649614,,,72.0,69.0,80621,60.0,
-77,77,-45,8,6,134,4,,,,,,,,,,,session,1768.5890941000544,132.0,2.0,72.0,0.1,2,0.41942549985833466,0.5862271999940276,1,0.9318800999317318,1.0967041000258178,1,0.13193529983982444,0.4653961998410523,,,63.0,51.0,80621,60.0,
-77,77,0,8,7,135,5,,,,,,,,,,,session,1776.3183299000375,144.0,2.0,72.0,0.00965745043140772,2,0.8127306001260877,0.9979362001176924,0,0.3552704998292029,0.5408439999446273,0,0.43257350008934736,0.5991841000504792,,,63.0,66.0,80621,60.0,
77,-77,45,8,8,136,10,,,,,,,,,,,session,1784.4657206998672,150.0,2.0,72.0,0.00965745043140772,2,0.9043378001078963,1.018942200113088,0,0.9423903001006693,1.0767986001446843,0,0.38168039987795055,0.5150949999224395,,,54.0,60.0,80621,60.0,
-77,-77,-45,8,9,137,12,,,,,,,,,,,session,1792.9216491000261,132.0,2.0,72.0,0.00965745043140772,2,0.3174682001117617,0.3632515000645071,0,0.10001499997451901,0.24965759995393455,0,0.23257509991526604,0.383303799899295,,,72.0,48.0,80621,60.0,
77,77,0,8,10,138,1,,,,,,,,,,,session,1800.1148659999017,138.0,2.0,72.0,0.00965745043140772,2,0.41635599988512695,0.49969170009717345,0,0.3895572000183165,0.5392841999419034,0,0.45076280017383397,0.6176206001546234,,,66.0,72.0,80621,60.0,
77,-77,90,8,11,139,11,,,,,,,,,,,session,1807.8170107000042,144.0,2.0,72.0,0.00965745043140772,2,0.692854099906981,0.8749593999236822,0,0.7897483999840915,0.9398884999100119,0,0.4931701000314206,0.69374919985421,,,63.0,54.0,80621,60.0,
77,-77,90,8,11,139,11,,,materials/instructions\12_break.png,1816.1520002000034,1817.1624542998616,0,0.8351209999527782,1.0075791999697685,0.022761099971830845,1.0253187001217157,,,,,,,,,,,,,,,,,,,,80621,60.0,
-77,77,90,8,12,140,7,,,,,,,,,,,session,1817.187383600045,132.0,2.0,72.0,0.00965745043140772,2,0.7281980998814106,0.9448225998785347,0,0.8546572998166084,1.0372729999944568,0,0.9074275998864323,1.0244288998655975,,,54.0,48.0,80621,60.0,
77,77,90,8,13,141,3,,,,,,,,,,,session,1826.0976398000494,162.0,2.0,72.0,0.00965745043140772,2,1.135178699856624,1.3183364998549223,0,0.33984129992313683,0.5077402000315487,0,0.4205855999607593,0.6040617001708597,,,48.0,66.0,80621,60.0,
-77,77,45,8,14,142,6,,,,,,,,,,,session,1834.6041689999402,150.0,2.0,72.0,0.00965745043140772,2,0.6539834998548031,0.8202249000314623,0,0.012457799864932895,0.014511099783703685,0,0.2959954999387264,0.42949160002171993,,,63.0,60.0,80621,60.0,
-77,-77,45,8,15,143,14,,,,,,,,,,,session,1841.8807447999716,156.0,2.0,72.0,0.1,3,0.6357654000166804,0.7697417999152094,7,1.191200700122863,1.3413445001933724,1,0.3359805999789387,0.45190919982269406,,,63.0,69.0,80621,60.0,
77,-77,0,9,0,144,9,,,,,,,,,,,session,1850.7008599999826,174.0,2.0,72.0,0.00965745043140772,2,0.9842105999123305,1.168691199971363,0,0.037537199910730124,0.24088900000788271,0,0.4145180000923574,0.5979519002139568,,,60.0,48.0,80621,60.0,
77,-77,45,9,1,145,10,,,,,,,,,,,session,1858.8402036000043,156.0,2.0,72.0,0.00965745043140772,2,0.9117882999125868,1.1281665998976678,0,0.3845184000674635,0.553927400149405,0,0.46767459996044636,0.6843159000854939,,,57.0,66.0,80621,60.0,
77,77,45,9,2,146,2,,,,,,,,,,,session,1867.8312349999323,156.0,2.0,72.0,0.00965745043140772,2,0.9812753000296652,1.1137155001051724,0,0.4397330000065267,0.623384399805218,0,0.41689349990338087,0.6341551998630166,,,57.0,54.0,80621,60.0,
77,77,0,9,3,147,1,,,,,,,,,,,session,1876.1024605000857,168.0,2.0,72.0,0.1,5,0.46768760005943477,0.634303200058639,0,1.4734885001089424,1.6236899001523852,6,2.94510899996385,3.064397100126371,,,51.0,66.0,80621,60.0,
-77,77,-45,9,4,148,4,,,,,,,,,,,session,1887.6512982000131,180.0,2.0,72.0,0.1,2,0.7671791999600828,0.8497657999396324,1,0.8181825999636203,1.018562600016594,6,0.17145429993979633,0.3534258999861777,,,63.0,69.0,80621,60.0,
-77,77,90,9,5,149,7,,,,,,,,,,,session,1896.5340352000203,168.0,2.0,72.0,0.1,2,0.2740019999910146,0.4242051998153329,6,0.7346917001996189,0.8856460000388324,6,0.3014750999864191,0.468394200084731,,,57.0,63.0,80621,60.0,
77,77,90,9,6,150,3,,,,,,,,,,,session,1904.5575729000848,138.0,2.0,72.0,0.00965745043140772,2,0.3935020000208169,0.5901941999327391,0,0.3220350001938641,0.5034204002004117,0,0.262319500092417,0.49629130004905164,,,60.0,69.0,80621,60.0,
77,-77,90,9,7,151,11,,,,,,,,,,,session,1912.6667386998888,180.0,2.0,72.0,0.1,4,0.3495045001618564,0.516295000212267,6,0.29959680000320077,0.44978670007549226,1,0.4510456998832524,0.6344723000656813,,,54.0,66.0,80621,60.0,
-77,-77,-45,9,8,152,12,,,,,,,,,,,session,1920.7197424999904,174.0,2.0,72.0,0.00965745043140772,2,1.7524862999562174,1.852685800055042,0,0.3674190000165254,0.5174353998154402,0,0.3635925000999123,0.49992530001327395,,,60.0,63.0,80621,60.0,
-77,-77,90,9,9,153,15,,,,,,,,,,,session,1930.0021339000668,168.0,2.0,72.0,0.00965745043140772,2,1.0842495998367667,1.2686707999091595,0,0.5402131001465023,0.7237593999598175,0,36.4782389998436,36.565590699901804,,,72.0,57.0,80621,60.0,
-77,77,45,9,10,154,6,,,,,,,,,,,session,1974.9866623000707,150.0,2.0,72.0,0.00965745043140772,2,0.7396990000270307,0.854182600043714,0,0.5183455999940634,0.6683936000335962,0,0.46763399988412857,0.6673276999499649,,,66.0,60.0,80621,60.0,
-77,77,0,9,11,155,5,,,,,,,,,,,session,1983.2515445000026,144.0,2.0,72.0,0.00965745043140772,2,0.5527765001170337,0.6695761000737548,0,0.3220986998640001,0.4911044999025762,0,0.537191899958998,0.7038636999204755,,,60.0,54.0,80621,60.0,
77,-77,-45,9,12,156,8,,,,,,,,,,,session,1990.8582899998873,126.0,2.0,72.0,0.00965745043140772,2,0.29883499979041517,0.40908729983493686,0,0.34800380002707243,0.5481336999218911,0,0.30638900003395975,0.5003470000810921,,,66.0,48.0,80621,60.0,
77,77,-45,9,13,157,0,,,,,,,,,,,session,1997.9486579999793,144.0,2.0,72.0,0.1,5,0.3831088999286294,0.5508477999828756,1,1.206151399994269,1.3895437000319362,6,0.6853376000653952,0.8688191999681294,,,72.0,51.0,80621,60.0,
-77,-77,0,9,14,158,13,,,,,,,,,,,session,2006.6513958000578,156.0,2.0,72.0,0.1,3,0.34852569992654026,0.5319740998093039,0,0.8722467999905348,1.0222945001441985,6,1.0848028000909835,1.2025099999736995,,,57.0,69.0,80621,60.0,
-77,-77,45,9,15,159,14,,,,,,,,,,,session,2015.5763971998822,168.0,2.0,72.0,0.00965745043140772,5,0.3294015999417752,0.529407599940896,0,0.33768460014835,0.5037069001700729,1,0.33135430002585053,0.4989293999969959,,,66.0,54.0,80621,60.0,
-77,-77,45,9,15,159,14,,,materials/instructions\12_break.png,2023.9721945000347,2025.865081399912,0,1.7407060000114143,1.8908377001062036,0.011892100097611547,1.897736300015822,,,,,,,,,,,,,,,,,,,,80621,60.0,
77,77,-45,10,0,160,0,,,,,,,,,,,session,2025.88094679988,126.0,2.0,72.0,0.00965745043140772,2,3.502947899978608,3.6362300000619143,0,0.33541599987074733,0.5537505999673158,0,0.3511457999702543,0.5677300000097603,,,66.0,72.0,80621,60.0,
-77,-77,45,10,1,161,14,,,,,,,,,,,session,2036.492285599932,162.0,2.0,72.0,0.00965745043140772,2,0.5145027001854032,0.6641063001006842,0,0.41796229989267886,0.5867886999621987,0,0.44945210008881986,0.6664752000942826,,,57.0,69.0,80621,60.0,
77,-77,0,10,2,162,9,,,,,,,,,,,session,2045.349880099995,174.0,2.0,72.0,0.00965745043140772,2,0.8170100001152605,0.9848792999982834,0,1.069904200034216,1.2375868000090122,0,0.5883164000697434,0.7882769000716507,,,72.0,60.0,80621,60.0,
77,-77,45,10,3,163,10,,,,,,,,,,,session,2054.9051687999163,132.0,2.0,72.0,0.00965745043140772,2,0.9391362001188099,1.087276600068435,0,0.4275265000760555,0.6437042001634836,0,0.3362946999259293,0.534773200051859,,,57.0,54.0,80621,60.0,
-77,77,-45,10,4,164,4,,,,,,,,,,,session,2062.70273800008,180.0,2.0,72.0,0.00965745043140772,2,0.6395296999253333,0.7882757999468595,0,0.5042106998153031,0.706289199879393,0,0.40237000002525747,0.6369124001357704,,,54.0,69.0,80621,60.0,
-77,-77,90,10,5,165,15,,,,,,,,,,,session,2071.3523472999223,138.0,2.0,72.0,0.1,3,0.4191946000792086,0.7024897001683712,6,0.8198406000155956,1.0052104000933468,6,0.29346479987725616,0.4782680000644177,,,63.0,57.0,80621,60.0,
77,77,90,10,6,166,3,,,,,,,,,,,session,2079.276474799961,162.0,2.0,72.0,0.00965745043140772,2,0.6119241998530924,0.8119550000410527,0,0.4372829000931233,0.6013589000795037,0,0.6327678998932242,0.8006191998720169,,,60.0,63.0,80621,60.0,
77,-77,90,10,7,167,11,,,,,,,,,,,session,2088.0672695999965,126.0,2.0,72.0,0.00965745043140772,2,0.6534794999752194,0.8368351999670267,0,1.2025458998978138,1.3860343999695033,0,0.37066869996488094,0.5206176000647247,,,60.0,72.0,80621,60.0,
-77,-77,-45,10,8,168,12,,,,,,,,,,,session,2096.555491999956,156.0,2.0,72.0,0.00965745043140772,2,0.5040689001325518,0.6540648001246154,0,0.4396792999468744,0.7228564000688493,0,0.38255449989810586,0.6143409998621792,,,72.0,63.0,80621,60.0,
77,77,0,10,9,169,1,,,,,,,,,,,session,2104.8368015000597,180.0,2.0,72.0,0.00965745043140772,2,0.46325149992480874,0.6132223000749946,0,0.047076999908313155,0.23390130000188947,0,0.29863730003125966,0.4310898999683559,,,63.0,54.0,80621,60.0,
77,-77,-45,10,10,170,8,,,,,,,,,,,session,2112.9840569000226,174.0,2.0,72.0,0.1,4,0.4028596000280231,0.5863489999901503,1,0.5548964999616146,0.6729021000210196,6,0.3032920998521149,0.45372759993188083,,,51.0,72.0,80621,60.0,
-77,77,90,10,11,171,7,,,,,,,,,,,session,2121.0897317999043,168.0,2.0,72.0,0.1,2,0.387849000049755,0.5545452998485416,6,0.4943870999850333,0.6619986000005156,6,0.33111810008995235,0.48553359997458756,,,60.0,51.0,80621,60.0,
-77,77,0,10,12,172,5,,,,,,,,,,,session,2128.9039252998773,180.0,2.0,72.0,0.00965745043140772,2,0.5292876998428255,0.7140432000160217,0,0.38391979993321,0.5010091001167893,0,0.3499294000212103,0.5173758000601083,,,63.0,54.0,80621,60.0,
77,77,45,10,13,173,2,,,,,,,,,,,session,2137.036555300001,174.0,2.0,72.0,0.00965745043140772,2,3.989611300174147,4.156462700106204,0,0.45597989996895194,0.7053867999929935,0,0.31972679984755814,0.5060207999777049,,,72.0,57.0,80621,60.0,
-77,77,45,10,14,174,6,,,,,,,,,,,session,2148.9154405998997,156.0,2.0,72.0,0.00965745043140772,2,1.1190949999727309,1.2691858999896795,0,1.03439150005579,1.251177900005132,0,0.48835420003160834,0.6676166001707315,,,72.0,48.0,80621,60.0,
-77,-77,0,10,15,175,13,,,,,,,,,,,session,2158.649449300021,174.0,2.0,72.0,0.00965745043140772,2,0.7487296001054347,0.915474999928847,0,0.6058377001900226,0.7734250000212342,0,0.8049627998843789,0.9376433999277651,,,60.0,51.0,80621,60.0,
-77,-77,-45,11,0,176,12,,,,,,,,,,,session,2167.4747568999883,156.0,2.0,72.0,0.00965745043140772,2,1.3658106999937445,1.4990139999426901,0,0.4153998999390751,0.6322373000439256,0,0.34933939995244145,0.566076299874112,,,69.0,66.0,80621,60.0,
77,-77,45,11,1,177,10,,,,,,,,,,,session,2176.6347519999836,180.0,2.0,72.0,0.00965745043140772,2,0.3840644999872893,0.5175097999162972,0,0.43521429994143546,0.6854020000901073,0,0.35044749989174306,0.5173199998680502,,,57.0,63.0,80621,60.0,
-77,77,0,11,2,178,5,,,,,,,,,,,session,2184.804722700035,168.0,2.0,72.0,0.00965745043140772,2,0.45100699993781745,0.6010181000456214,0,0.4558883002027869,0.6896261000074446,0,0.3574922999832779,0.5992189000826329,,,51.0,72.0,80621,60.0,
77,77,90,11,3,179,3,,,,,,,,,,,session,2193.019987100037,156.0,2.0,72.0,0.00965745043140772,2,0.582985799992457,0.7496799000073224,0,0.6184632000513375,0.7851321001071483,0,0.48344490001909435,0.6666319000069052,,,69.0,48.0,80621,60.0,
77,77,90,11,3,179,3,,,materials/instructions\12_break.png,2201.8323458000086,2203.9335209000856,0,1.8656671999488026,2.0990247998852283,0.02107120002619922,2.107110499870032,,,,,,,,,,,,,,,,,,,,80621,60.0,
77,-77,-45,11,4,180,8,,,,,,,,,,,session,2203.9491397999227,180.0,2.0,72.0,0.00965745043140772,2,0.3026313001755625,0.4863956000190228,0,0.4050469999201596,0.6050171998795122,0,0.30078249983489513,0.5178718999959528,,,69.0,57.0,80621,60.0,
-77,-77,45,11,5,181,14,,,,,,,,,,,session,2212.1264551000204,138.0,2.0,72.0,0.1,3,0.378620499977842,0.5500713000074029,7,1.003277299925685,1.1528717998880893,6,0.3175454998854548,0.4508135998621583,,,54.0,57.0,80621,60.0,
-77,-77,90,11,6,182,15,,,,,,,,,,,session,2220.217474800069,156.0,2.0,72.0,0.1,3,0.29942500009201467,0.4660201999358833,6,0.4019237000029534,0.5864722998812795,6,0.31828289991244674,0.4852553999517113,,,66.0,63.0,80621,60.0,
-77,77,45,11,7,183,6,,,,,,,,,,,session,2227.953305099858,162.0,2.0,72.0,0.00965745043140772,2,1.0331440998706967,1.315322000067681,0,0.38961399998515844,0.5897574999835342,0,0.3160286999773234,0.5328483998309821,,,48.0,57.0,80621,60.0,
-77,-77,0,11,8,184,13,,,,,,,,,,,session,2236.293687199941,156.0,2.0,72.0,0.00965745043140772,2,0.9626432000659406,1.1298209000378847,0,0.4056450999341905,0.5739311000797898,0,0.35040519991889596,0.5323572000488639,,,48.0,69.0,80621,60.0,
-77,77,-45,11,9,185,4,,,,,,,,,,,session,2245.103067100048,126.0,2.0,72.0,0.00965745043140772,2,0.8556202000472695,1.0223371998872608,0,0.3356490000151098,0.5369281000457704,0,0.38301140000112355,0.5831531998701394,,,66.0,54.0,80621,60.0,
77,-77,90,11,10,186,11,,,,,,,,,,,session,2252.7894854999613,180.0,2.0,72.0,0.00965745043140772,2,0.5020691000390798,0.6356748000252992,0,0.4236103999428451,0.7153669998515397,0,0.3170944000594318,0.45042119990102947,,,48.0,51.0,80621,60.0,
77,77,0,11,11,187,1,,,,,,,,,,,session,2260.6883290999103,144.0,2.0,72.0,0.00965745043140772,2,0.8322836000006646,1.0169073999859393,0,1.198666799813509,1.3662425999063998,0,0.5186979998834431,0.7021417999640107,,,63.0,72.0,80621,60.0,
77,77,-45,11,12,188,0,,,,,,,,,,,session,2270.0523443000857,180.0,2.0,72.0,0.00965745043140772,2,0.9684616001322865,1.1184241999872029,0,2.4764416001271456,2.5929332999512553,0,0.28786089993081987,0.40567949996329844,,,51.0,54.0,80621,60.0,
77,-77,0,11,13,189,9,,,,,,,,,,,session,2280.3629089999013,126.0,2.0,72.0,0.00965745043140772,2,0.3487162000965327,0.494737199973315,0,0.3363166998606175,0.4685557000339031,0,0.33578449999913573,0.46913799992762506,,,60.0,54.0,80621,60.0,
-77,77,90,11,14,190,7,,,,,,,,,,,session,2287.9188276000787,156.0,2.0,72.0,0.00965745043140772,2,0.6000272000674158,0.7325804999563843,0,0.4585369999986142,0.6904649999924004,0,0.34791969996877015,0.5314311000984162,,,72.0,60.0,80621,60.0,
77,77,45,11,15,191,2,,,,,,,,,,,session,2296.1229952999856,150.0,2.0,72.0,0.00965745043140772,2,0.6687141000293195,0.7859141998924315,0,0.31726610008627176,0.5007317999843508,0,0.39715160010382533,0.5419675000011921,,,60.0,60.0,80621,60.0,
77,77,-45,12,0,192,0,,,,,,,,,,,session,2303.9176262998953,126.0,2.0,72.0,0.00965745043140772,2,0.9962257000152022,1.1961604000534862,0,0.3339118999429047,0.5317355999723077,0,0.553313700016588,0.7851460000965744,,,66.0,54.0,80621,60.0,
-77,-77,45,12,1,193,14,,,,,,,,,,,session,2312.487712000031,150.0,2.0,72.0,0.00965745043140772,2,0.8663258999586105,1.0164902999531478,0,0.8405257000122219,1.0592277999967337,0,0.012109499890357256,0.22270949999801815,,,72.0,69.0,80621,60.0,
77,-77,0,12,2,194,9,,,,,,,,,,,session,2321.075634599896,132.0,2.0,72.0,0.00965745043140772,2,0.6269557999912649,0.7859836998395622,0,0.17911190004087985,0.3518047998659313,0,0.3518249001353979,0.5311501000542194,,,57.0,66.0,80621,60.0,
-77,-77,-45,12,3,195,12,,,,,,,,,,,session,2328.468287100084,162.0,2.0,72.0,0.00965745043140772,2,0.8285273998044431,1.02775299991481,0,0.48747809999622405,0.6375581999309361,0,0.5047453998122364,0.7027143000159413,,,60.0,51.0,80621,60.0,
-77,-77,0,12,4,196,13,,,,,,,,,,,session,2336.8720605000854,138.0,2.0,72.0,0.00965745043140772,2,0.6852780000772327,0.8686673000920564,0,0.424307000124827,0.5893359000328928,0,0.18662909977138042,0.40344169992022216,,,48.0,60.0,80621,60.0,
77,77,0,12,5,197,1,,,,,,,,,,,session,2344.2795480000786,174.0,2.0,72.0,0.00965745043140772,2,0.5766431000083685,1.022671699989587,0,0.6374567002058029,0.9206993000116199,0,0.34847890003584325,0.5495575999375433,,,54.0,57.0,80621,60.0,
77,77,45,12,6,198,2,,,,,,,,,,,session,2353.3362868998665,180.0,2.0,72.0,0.00965745043140772,2,0.7887587998993695,1.0057631998788565,0,0.32109350012615323,0.47124830004759133,0,0.384982000105083,0.552848800085485,,,48.0,54.0,80621,60.0,
-77,-77,90,12,7,199,15,,,,,,,,,,,session,2361.523332099896,150.0,2.0,72.0,0.00965745043140772,2,0.6514616999775171,0.8516508999746293,0,0.7363448000978678,0.9376191000919789,0,0.3756530999671668,0.5757244999986142,,,72.0,60.0,80621,60.0,
-77,-77,90,12,7,199,15,,,materials/instructions\12_break.png,2370.106954500079,2375.9007681999356,0,5.658635800005868,5.791802300140262,0.023968999972566962,5.79969109990634,,,,,,,,,,,,,,,,,,,,80621,60.0,
-77,77,-45,12,8,200,4,,,,,,,,,,,session,2375.916883399943,126.0,2.0,72.0,0.00965745043140772,2,0.5991289999801666,0.7333438999485224,0,0.3728350999299437,0.5062684998847544,0,0.48127250000834465,0.6814023999031633,,,57.0,69.0,80621,60.0,
77,77,90,12,9,201,3,,,,,,,,,,,session,2383.4728963999078,156.0,2.0,72.0,0.00965745043140772,2,1.2012697998434305,1.3507796998601407,0,0.4721544999629259,0.6550896998960525,0,0.6588792998809367,0.8258678999263793,,,54.0,54.0,80621,60.0,
-77,77,45,12,10,202,6,,,,,,,,,,,session,2392.167736399919,150.0,2.0,72.0,0.00965745043140772,2,0.37762949988245964,0.5445534999016672,0,0.3889824999496341,0.5891130999661982,0,0.5053305001929402,0.668183300178498,,,72.0,48.0,80621,60.0,
-77,77,90,12,11,203,7,,,,,,,,,,,session,2400.3878893998917,138.0,2.0,72.0,0.00965745043140772,2,0.46880299993790686,0.736510300077498,0,0.48946020007133484,0.7208523000590503,0,0.4878898998722434,0.6705046000424773,,,60.0,51.0,80621,60.0,
77,-77,-45,12,12,204,8,,,,,,,,,,,session,2408.1082198000513,168.0,2.0,72.0,0.00965745043140772,2,0.6650137999095023,0.8318459999281913,0,0.6018888000398874,0.8019679000135511,0,0.29767430014908314,0.5647393001709133,,,66.0,54.0,80621,60.0,
-77,77,0,12,13,205,5,,,,,,,,,,,session,2416.5691676000133,156.0,2.0,72.0,0.1,2,0.2492664000019431,0.3995934999547899,0,0.5533936000429094,0.7861709999851882,6,0.336579900002107,0.4694287001620978,,,69.0,60.0,80621,60.0,
77,-77,45,12,14,206,10,,,,,,,,,,,session,2424.421736899996,180.0,2.0,72.0,0.00965745043140772,2,1.0369557000230998,1.3024300001561642,0,0.40373519994318485,0.6539000999182463,0,0.36596340010873973,0.6328799000475556,,,54.0,60.0,80621,60.0,
77,-77,90,12,15,207,11,,,,,,,,,,,session,2433.360930999974,180.0,2.0,72.0,0.1,4,0.5953997999895364,0.7287387000396848,6,0.434431100031361,0.5858016998972744,0,0.4488027000334114,0.6487859999760985,,,72.0,66.0,80621,60.0,
77,-77,0,13,0,208,9,,,,,,,,,,,session,2442.5548817000818,156.0,2.0,72.0,0.1,4,0.3654974999371916,0.5324190999381244,0,0.5381431998685002,0.6889559000264853,6,1.321447999915108,1.4694133000448346,,,51.0,57.0,80621,60.0,
77,77,0,13,1,209,1,,,,,,,,,,,session,2451.090990900062,126.0,2.0,72.0,0.1,5,0.33653469989076257,0.5206180999521166,0,0.3204084001481533,0.4867248001974076,6,0.34021559986285865,0.4971264998894185,,,72.0,63.0,80621,60.0,
77,-77,45,13,2,210,10,,,,,,,,,,,session,2458.38904420007,138.0,2.0,72.0,0.00965745043140772,3,1.6279750000685453,1.911106200190261,0,1.131452500121668,1.2979292999953032,0,2.893255699891597,3.1101037999615073,,,48.0,57.0,80621,60.0,
77,77,45,13,3,211,2,,,,,,,,,,,session,2470.709656199906,138.0,2.0,72.0,0.1,5,0.35302109993062913,0.5029128999449313,7,1.2706582001410425,1.4715734000783414,6,0.33570039994083345,0.5359176998026669,,,69.0,51.0,80621,60.0,
-77,77,0,13,4,212,5,,,,,,,,,,,session,2478.9791536000557,138.0,2.0,72.0,0.00965745043140772,2,0.8434307998977602,0.999290999956429,0,0.28738749981857836,0.4548187998589128,0,0.31394199980422854,0.582165899919346,,,72.0,57.0,80621,60.0,
77,77,90,13,5,213,3,,,,,,,,,,,session,2487.507449799916,132.0,2.0,72.0,0.1,5,0.5173200001008809,0.7356227000709623,6,0.46604430000297725,0.6661864998750389,6,0.369835700141266,0.5517667001113296,,,66.0,48.0,80621,60.0,
77,-77,-45,13,6,214,8,,,,,,,,,,,session,2495.024070000043,150.0,2.0,72.0,0.00965745043140772,2,0.7840241000521928,0.9532918001059443,0,0.3250386998988688,0.5242097999434918,0,0.3324937999714166,0.5108900000341237,,,48.0,69.0,80621,60.0,
-77,77,-45,13,7,215,4,,,,,,,,,,,session,2502.918441100046,168.0,2.0,72.0,0.00965745043140772,2,3.50126860011369,3.635545900091529,0,0.4005159998778254,0.551257599843666,0,0.4339904000516981,0.6507933000102639,,,66.0,57.0,80621,60.0,
-77,77,45,13,8,216,6,,,,,,,,,,,session,2514.4904636999127,156.0,2.0,72.0,0.1,2,0.3666766001842916,0.5339903000276536,7,1.1040549001190811,1.2388915999326855,0,1.6675391998142004,1.842238999903202,,,60.0,60.0,80621,60.0,
77,77,-45,13,9,217,0,,,,,,,,,,,session,2524.1564557999372,168.0,2.0,72.0,0.00965745043140772,2,0.9830189000349492,1.1497865000274032,0,1.5825396999716759,1.8164141001179814,0,0.648445300059393,0.8485790998674929,,,57.0,63.0,80621,60.0,
-77,-77,45,13,10,218,14,,,,,,,,,,,session,2534.8559805999976,180.0,2.0,72.0,0.00965745043140772,2,1.0556893998291343,1.2081889999099076,0,0.7194991998840123,0.9540979999583215,0,0.4036389000248164,0.6039207999128848,,,63.0,48.0,80621,60.0,
-77,77,90,13,11,219,7,,,,,,,,,,,session,2543.9128356999718,168.0,2.0,72.0,0.00965745043140772,2,0.6911502000875771,0.824617300182581,0,0.9860368000809103,1.1360119001474231,0,0.411430099979043,0.5958052000496536,,,60.0,60.0,80621,60.0,
-77,77,90,13,11,219,7,,,materials/instructions\12_break.png,2553.219888099935,2555.436459499877,0,2.0645296000875533,2.2146598000545055,0.019276399863883853,2.2224437999539077,,,,,,,,,,,,,,,,,,,,80621,60.0,
-77,-77,0,13,12,220,13,,,,,,,,,,,session,2555.4528812000062,144.0,2.0,72.0,0.1,3,0.2836050000041723,0.48406819999217987,0,0.37231949996203184,0.555277599953115,6,0.31925459997728467,0.48604359989985824,,,69.0,51.0,80621,60.0,
77,-77,90,13,13,221,11,,,,,,,,,,,session,2562.8440209000837,138.0,2.0,72.0,0.00965745043140772,2,0.618118799990043,0.7850655000656843,0,0.33535400009714067,0.5376259000040591,0,0.33217860013246536,0.4817653000354767,,,60.0,63.0,80621,60.0,
-77,-77,90,13,14,222,15,,,,,,,,,,,session,2570.5070897999685,174.0,2.0,72.0,0.1,3,0.7524834999348968,0.9036687000188977,6,0.4200534999836236,0.5534528000280261,6,0.9989710999652743,1.1319496999494731,,,48.0,60.0,80621,60.0,
-77,-77,-45,13,15,223,12,,,,,,,,,,,session,2579.306922900025,144.0,2.0,72.0,0.00965745043140772,2,0.8507123000454158,1.0344190001487732,0,0.30563140008598566,0.4901628000661731,0,0.3231899000238627,0.4709966001100838,,,57.0,60.0,80621,60.0,
-77,77,0,14,0,224,5,,,,,,,,,,,session,2587.0958334000316,168.0,2.0,72.0,0.00965745043140772,2,1.003897399874404,1.137347700074315,0,0.2844269999768585,0.5481483000330627,0,0.3003068999387324,0.49906629999168217,,,54.0,54.0,80621,60.0,
-77,77,90,14,1,225,7,,,,,,,,,,,session,2595.6374900999945,162.0,2.0,72.0,0.00965745043140772,2,1.0043665000703186,1.1377214000094682,0,0.6252752000000328,0.793236100114882,0,1.0865183998830616,1.2189799000043422,,,51.0,48.0,80621,60.0,
77,-77,-45,14,2,226,8,,,,,,,,,,,session,2604.5582059000153,180.0,2.0,72.0,0.00965745043140772,2,2.893063300056383,3.059893799945712,0,0.5749459997750819,0.7973979997914284,0,0.7007441997993737,0.98424579994753,,,48.0,69.0,80621,60.0,
77,-77,90,14,3,227,11,,,,,,,,,,,session,2615.7920720998663,168.0,2.0,72.0,0.00965745043140772,2,0.9522963999770582,1.2031975998543203,0,1.3396572000347078,1.6232358999550343,0,1.3354915999807417,1.5856964001432061,,,57.0,66.0,80621,60.0,
-77,-77,90,14,4,228,15,,,,,,,,,,,session,2626.5249930000864,150.0,2.0,72.0,0.00965745043140772,2,0.6350276998709887,0.8195146999787539,0,0.37233220017515123,0.6055027002003044,0,0.48506660014390945,0.6887152001727372,,,48.0,51.0,80621,60.0,
77,-77,0,14,5,229,9,,,,,,,,,,,session,2634.234239500016,138.0,2.0,72.0,0.1,4,0.35051109991036355,0.49888289999216795,0,0.28714630007743835,0.43646110012196004,6,0.33234289987012744,0.4987880999688059,,,69.0,48.0,80621,60.0,
-77,-77,45,14,6,230,14,,,,,,,,,,,session,2641.9558812999167,138.0,2.0,72.0,0.00965745043140772,2,1.250965799903497,1.4015481998212636,0,0.20560079999268055,0.4410349999088794,0,0.1012850000988692,0.3185779999475926,,,51.0,57.0,80621,60.0,
77,77,0,14,7,231,1,,,,,,,,,,,session,2649.658616699977,144.0,2.0,72.0,0.00965745043140772,2,0.9846351998858154,1.1187883999664336,0,0.3873583001550287,0.5709009999409318,0,0.5302029999438673,0.7464692001231015,,,63.0,57.0,80621,60.0,
-77,77,-45,14,8,232,4,,,,,,,,,,,session,2657.9415340998676,168.0,2.0,72.0,0.1,2,0.33401870005764067,0.48254820005968213,1,0.7991577000357211,0.9999426999129355,6,0.5852371000219136,0.7682461000513285,,,66.0,48.0,80621,60.0,
77,77,-45,14,9,233,0,,,,,,,,,,,session,2666.639697900042,168.0,2.0,72.0,0.1,5,0.3494520001113415,0.4663253000471741,1,0.9857717000413686,1.170264600077644,6,0.33516850019805133,0.5019185000564903,,,72.0,57.0,80621,60.0,
77,-77,45,14,10,234,10,,,,,,,,,,,session,2675.178433999885,168.0,2.0,72.0,0.00965745043140772,2,1.440639200154692,1.494834000011906,0,0.7991124999243766,0.9994022001046687,0,0.4655844001099467,0.6819901000708342,,,66.0,51.0,80621,60.0,
-77,-77,-45,14,11,235,12,,,,,,,,,,,session,2684.7221234000754,174.0,2.0,72.0,0.00965745043140772,2,1.1162922999355942,1.264505999861285,0,0.4920675999019295,0.6914687000680715,0,0.45390220009721816,0.7040176999289542,,,48.0,66.0,80621,60.0,
-77,-77,0,14,12,236,13,,,,,,,,,,,session,2693.6268867999315,156.0,2.0,72.0,0.00965745043140772,2,0.8862902000546455,1.0362678999081254,0,0.3554271999746561,0.5044488001149148,0,0.4473908001091331,0.6642597001045942,,,48.0,51.0,80621,60.0,
77,77,45,14,13,237,2,,,,,,,,,,,session,2701.5532233000267,168.0,2.0,72.0,0.00965745043140772,2,1.1121137000154704,1.2447979000862688,0,0.6366681999061257,0.8165688998997211,0,0.9671934999059886,1.1167144000064582,,,69.0,60.0,80621,60.0,
-77,77,45,14,14,238,6,,,,,,,,,,,session,2711.641868799925,180.0,2.0,72.0,0.00965745043140772,2,0.7630988000892103,0.9628101999405771,0,1.2248795998748392,1.3915266999974847,0,0.43407710012979805,0.6185544000472873,,,54.0,66.0,80621,60.0,
77,77,90,14,15,239,3,,,,,,,,,,,session,2721.0646055999678,138.0,2.0,72.0,0.00965745043140772,2,0.7749024000950158,0.9285997000988573,0,0.6986155998893082,0.86532499990426,0,0.7155361999757588,0.9490898998919874,,,72.0,48.0,80621,60.0,
77,77,90,14,15,239,3,,,materials/instructions\12_break.png,2730.0826765999664,2731.4730376000516,0,1.185940499883145,1.3881758998613805,0.022938900161534548,1.3937349000480026,,,,,,,,,,,,,,,,,,,,80621,60.0,
-77,77,45,15,0,240,6,,,,,,,,,,,session,2731.4869212999474,180.0,2.0,72.0,0.00965745043140772,2,1.0389347998425364,1.2246121999341995,0,1.2078475998714566,1.4746443999465555,0,0.38817509985528886,0.6710520999040455,,,54.0,72.0,80621,60.0,
-77,-77,90,15,1,241,15,,,,,,,,,,,session,2741.4304732000455,132.0,2.0,72.0,0.00965745043140772,2,0.6550711998715997,0.877561999950558,0,0.3985198000445962,0.6181528000161052,0,0.37010709987953305,0.5667516998946667,,,63.0,54.0,80621,60.0,
-77,77,-45,15,2,242,4,,,,,,,,,,,session,2749.089168400038,180.0,2.0,72.0,0.00965745043140772,2,0.4322185998316854,0.5816430998966098,0,0.36980829993262887,0.5531234000809491,0,0.30168820009566844,0.535464100074023,,,69.0,57.0,80621,60.0,
-77,-77,-45,15,3,243,12,,,,,,,,,,,session,2757.3241415999364,162.0,2.0,72.0,0.1,3,0.4560532998293638,0.6719212997704744,1,0.6887020999565721,0.9564594000112265,6,0.3167387000285089,0.43348339991644025,,,63.0,60.0,80621,60.0,
-77,77,0,15,4,244,5,,,,,,,,,,,session,2765.5810549999587,126.0,2.0,72.0,0.00965745043140772,2,0.7946706998627633,0.9972232000436634,0,0.08405880001373589,0.2675832000095397,0,0.5037606998812407,0.6871760999783874,,,69.0,60.0,80621,60.0,
77,-77,90,15,5,245,11,,,,,,,,,,,session,2773.772533999989,156.0,2.0,72.0,0.00965745043140772,2,1.0353355000261217,1.168848300119862,0,0.4066709999460727,0.5883111997973174,0,0.6022506000008434,0.7862085001543164,,,51.0,63.0,80621,60.0,
-77,-77,0,15,6,246,13,,,,,,,,,,,session,2782.2775864999276,132.0,2.0,72.0,0.00965745043140772,2,0.328529299935326,0.46303840004839003,0,0.2686509999912232,0.48429360007867217,0,0.38558769994415343,0.5689191999845207,,,57.0,69.0,80621,60.0,
77,-77,0,15,7,247,9,,,,,,,,,,,session,2789.5493385999,180.0,2.0,72.0,0.00965745043140772,2,0.995942700188607,1.1268800001125783,0,0.4735393999144435,0.7229212999809533,0,0.38550189998932183,0.5854429001919925,,,51.0,48.0,80621,60.0,
77,77,45,15,8,248,2,,,,,,,,,,,session,2798.6415516000707,138.0,2.0,72.0,0.00965745043140772,2,0.8690575000364333,1.0683412998914719,0,0.5368810000363737,0.7037303999532014,0,0.556186799891293,0.8729523997753859,,,72.0,66.0,80621,60.0,
-77,-77,45,15,9,249,14,,,,,,,,,,,session,2807.331334099872,126.0,2.0,72.0,0.00965745043140772,2,0.9440691999625415,1.1285914999898523,0,0.4291022999677807,0.6290239999070764,0,0.3504345000255853,0.5703179999254644,,,57.0,66.0,80621,60.0,
77,-77,-45,15,10,250,8,,,,,,,,,,,session,2815.2803799998946,138.0,2.0,72.0,0.00965745043140772,2,0.9643150998745114,1.1978569000493735,0,0.5565213998779655,0.754838899942115,0,0.5031232999172062,0.753273299895227,,,57.0,57.0,80621,60.0,
77,-77,45,15,11,251,10,,,,,,,,,,,session,2823.643035199959,150.0,2.0,72.0,0.00965745043140772,2,0.7047490999102592,0.9533218999858946,0,0.9690618999302387,1.1528182998299599,0,0.5206165998242795,0.70493120001629,,,51.0,60.0,80621,60.0,
77,77,0,15,12,252,1,,,,,,,,,,,session,2832.2684869000223,150.0,2.0,72.0,0.1,5,0.31363310012966394,0.4136057000141591,0,0.37205259990878403,0.5560520999133587,1,0.32877610018476844,0.4631416001357138,,,69.0,66.0,80621,60.0,
77,77,90,15,13,253,3,,,,,,,,,,,session,2840.4918094000313,132.0,2.0,72.0,0.1,5,0.3012361000292003,0.45125390007160604,6,0.35045479983091354,0.4995796999428421,1,0.9277389000635594,1.0966775000561029,,,69.0,57.0,80621,60.0,
-77,77,90,15,14,254,7,,,,,,,,,,,session,2848.2630576998927,180.0,2.0,72.0,0.1,2,0.6226519998162985,0.7562640998512506,6,1.0392032999079674,1.23106799996458,6,0.3275627999100834,0.49856900004670024,,,72.0,69.0,80621,60.0,
77,77,-45,15,15,255,0,,,,,,,,,,,session,2857.559829900041,150.0,2.0,72.0,0.00965745043140772,2,0.5990981999784708,0.7491993000730872,0,0.011627000058069825,0.220828200224787,0,0.4011536000762135,0.6010753998998553,,,48.0,72.0,80621,60.0,
77,-77,90,16,0,256,11,,,,,,,,,,,session,2865.175930199912,162.0,2.0,72.0,0.00965745043140772,2,0.6008446000050753,0.7342481999658048,0,0.012133799958974123,0.23508659983053803,0,0.32079339982010424,0.5032857998739928,,,60.0,54.0,80621,60.0,
77,77,45,16,1,257,2,,,,,,,,,,,session,2872.697062500054,150.0,2.0,72.0,0.00965745043140772,2,0.46901210001669824,0.6170426001772285,0,0.2839198000729084,0.5285613001324236,0,0.04808779992163181,0.35092330002225935,,,48.0,66.0,80621,60.0,
77,77,90,16,2,258,3,,,,,,,,,,,session,2880.077006999869,156.0,2.0,72.0,0.00965745043140772,2,0.46691800002008677,0.6005965999793261,0,0.3358639001380652,0.5513400000054389,0,0.4869474000297487,0.7349000000394881,,,63.0,69.0,80621,60.0,
77,-77,0,16,3,259,9,,,,,,,,,,,session,2888.242888699984,150.0,2.0,72.0,0.00965745043140772,2,0.353855499997735,0.48534270003437996,0,0.36831129994243383,0.5521451998502016,0,0.4977216999977827,0.6643804998602718,,,60.0,63.0,80621,60.0,
77,-77,0,16,3,259,9,,,materials/instructions\12_break.png,2895.97215149994,2897.828837899957,0,1.6879607001319528,1.854730200022459,0.010719499783590436,1.8627197998575866,,,,,,,,,,,,,,,,,,,,80621,60.0,
-77,-77,90,16,4,260,15,,,,,,,,,,,session,2897.8443008998875,144.0,2.0,72.0,0.00965745043140772,2,0.3618205999955535,0.49525319994427264,0,0.40636390005238354,0.6231914998497814,0,0.26576659991405904,0.4981871999334544,,,48.0,51.0,80621,60.0,
77,77,-45,16,5,261,0,,,,,,,,,,,session,2905.589790799888,168.0,2.0,72.0,0.00965745043140772,2,0.36262819985859096,0.47966729989275336,0,0.3525795000605285,0.5527840000577271,0,0.7004416999407113,0.9173634999897331,,,48.0,60.0,80621,60.0,
-77,-77,45,16,6,262,14,,,,,,,,,,,session,2913.5934703999665,156.0,2.0,72.0,0.00965745043140772,2,0.5337720999959856,0.6824845001101494,0,0.89458840014413,1.076928900089115,0,0.35107069998048246,0.5430122001562268,,,66.0,66.0,80621,60.0,
-77,-77,-45,16,7,263,12,,,,,,,,,,,session,2922.143726399867,132.0,2.0,72.0,0.00965745043140772,2,0.4445994000416249,0.56346770003438,0,0.4177367000374943,0.5511070999782532,0,0.417838100111112,0.5178952000569552,,,66.0,54.0,80621,60.0,
-77,77,90,16,8,264,7,,,,,,,,,,,session,2929.912010999862,132.0,2.0,72.0,0.1,2,0.20193019998259842,0.3686549998819828,6,0.3720228001475334,0.5574149000458419,6,0.28683730005286634,0.4712827999610454,,,57.0,48.0,80621,60.0,
-77,-77,0,16,9,265,13,,,,,,,,,,,session,2936.71175649995,168.0,2.0,72.0,0.00965745043140772,2,0.4024904000107199,0.5525320000015199,0,0.012499000178650022,0.12202130001969635,0,0.2561802000273019,0.4289118000306189,,,72.0,54.0,80621,60.0,
-77,77,45,16,10,266,6,,,,,,,,,,,session,2944.160793900024,168.0,2.0,72.0,0.00965745043140772,2,0.565385099966079,0.732944899937138,0,0.38624310004524887,0.5906540001742542,0,0.35006620013155043,0.48338049999438226,,,72.0,51.0,80621,60.0,
77,-77,-45,16,11,267,8,,,,,,,,,,,session,2952.8405659000855,180.0,2.0,72.0,0.1,4,0.401146600022912,0.5849198000505567,7,1.877569800009951,2.028413699939847,1,0.28802870004437864,0.43803049996495247,,,63.0,72.0,80621,60.0,
-77,77,-45,16,12,268,4,,,,,,,,,,,session,2962.5831355000846,126.0,2.0,72.0,0.00965745043140772,2,1.1470068998169154,1.2970199999399483,0,0.011458000168204308,0.0844643001910299,0,0.33525809994898736,0.46495900000445545,,,63.0,60.0,80621,60.0,
77,77,0,16,13,269,1,,,,,,,,,,,session,2970.024458899861,138.0,2.0,72.0,0.1,5,0.011840300168842077,0.2192866001278162,0,0.44044700008817017,0.6049613000359386,6,0.33538649999536574,0.4851259000133723,,,60.0,69.0,80621,60.0,
77,-77,45,16,14,270,10,,,,,,,,,,,session,2977.241872200044,150.0,2.0,72.0,0.00965745043140772,2,0.938554499996826,1.0552924999501556,0,0.011979500064626336,0.17524500004947186,0,0.33433050010353327,0.5028620001394302,,,57.0,57.0,80621,60.0,
-77,77,0,16,15,271,5,,,,,,,,,,,session,2984.8175890999846,150.0,2.0,72.0,0.00965745043140772,2,0.8591318000108004,0.9428860999178141,0,0.1882084000390023,0.40217159991152585,0,0.1345242999959737,0.3156588999554515,,,54.0,54.0,80621,60.0,
77,77,-45,17,0,272,0,,,,,,,,,,,session,2992.4919781999197,138.0,2.0,72.0,0.00965745043140772,2,0.5290383000392467,0.6944587999023497,0,0.3762352999765426,0.5930979999247938,0,0.48456299980171025,0.6856469998601824,,,63.0,63.0,80621,60.0,
77,77,45,17,1,273,2,,,,,,,,,,,session,3000.3462032999378,150.0,2.0,72.0,0.00965745043140772,2,0.802149600116536,0.9688252999912947,0,0.011822200147435069,0.0137255999725312,0,0.500614499906078,0.6843206000048667,,,66.0,48.0,80621,60.0,
-77,-77,45,17,2,274,14,,,,,,,,,,,session,3007.8659816000145,162.0,2.0,72.0,0.1,3,0.01261129998601973,0.4779157000593841,7,1.0677166997920722,1.2025923000182956,6,0.010813600150868297,0.012711100047454238,,,60.0,72.0,80621,60.0,
-77,77,90,17,3,275,7,,,,,,,,,,,session,3016.3347006000113,174.0,2.0,72.0,0.00965745043140772,2,0.39990110020153224,0.5667171000968665,0,0.38507850002497435,0.5183280999772251,0,0.3846582002006471,0.5845438002143055,,,66.0,69.0,80621,60.0,
77,-77,-45,17,4,276,8,,,,,,,,,,,session,3024.611840300029,180.0,2.0,72.0,0.1,4,0.30109630012884736,0.5545771000906825,1,0.5044655001256615,0.6545097001362592,6,0.2706731001380831,0.4718365999870002,,,54.0,72.0,80621,60.0,
-77,-77,-45,17,5,277,12,,,,,,,,,,,session,3032.8383456000593,144.0,2.0,72.0,0.1,3,0.38106180005706847,0.5966795000713319,1,0.9194516001734883,1.0709379001054913,6,0.7045092000626028,0.8369681001640856,,,51.0,54.0,80621,60.0,
-77,77,45,17,6,278,6,,,,,,,,,,,session,3041.495009300066,144.0,2.0,72.0,0.00965745043140772,2,1.0689771999605,1.1684009998571128,0,0.011495199985802174,0.17487959982827306,0,0.2195984001737088,0.48648300021886826,,,51.0,69.0,80621,60.0,
77,-77,0,17,7,279,9,,,,,,,,,,,session,3049.163993099937,162.0,2.0,72.0,0.00965745043140772,2,0.4354413999244571,0.6181344999931753,0,0.452957300003618,0.5808220999315381,0,0.4426587999332696,0.5308809999842197,,,48.0,48.0,80621,60.0,
77,-77,0,17,7,279,9,,,materials/instructions\12_break.png,3056.6969534999225,3064.5409349000547,0,7.708396100206301,7.841922300169244,0.02436970011331141,7.849739600205794,,,,,,,,,,,,,,,,,,,,80621,60.0,
-77,77,0,17,8,280,5,,,,,,,,,,,session,3064.5567928999662,150.0,2.0,72.0,0.00965745043140772,2,1.0199615000747144,1.1351413000375032,0,5.241898500127718,5.375422400189564,0,1.0069649999495596,1.2070989001076669,,,54.0,48.0,80621,60.0,
77,77,90,17,9,281,3,,,,,,,,,,,session,3077.9571980999317,126.0,2.0,72.0,0.00965745043140772,2,1.315613100072369,1.449114500079304,0,0.6168078000191599,0.801083100028336,0,0.47180750011466444,0.6724217000883073,,,72.0,60.0,80621,60.0,
77,-77,90,17,10,282,11,,,,,,,,,,,session,3086.9269769999664,162.0,2.0,72.0,0.00965745043140772,2,0.4853918000590056,0.7191687000449747,0,0.5579345000442117,0.7907237000763416,0,0.5863441000692546,0.8364025000482798,,,54.0,66.0,80621,60.0,
-77,77,-45,17,11,283,4,,,,,,,,,,,session,3095.416992299957,138.0,2.0,72.0,0.1,2,0.09922859980724752,0.39406559988856316,1,0.9632058998104185,1.1168662998825312,6,1.1518602999858558,1.3009901999030262,,,72.0,66.0,80621,60.0,
77,77,0,17,12,284,1,,,,,,,,,,,session,3104.3920620998833,174.0,2.0,72.0,0.00965745043140772,2,0.7824575998820364,0.9325172998942435,0,0.8738667001016438,1.0575892999768257,0,0.38549480005167425,0.6023266001138836,,,54.0,51.0,80621,60.0,
-77,-77,0,17,13,285,13,,,,,,,,,,,session,3113.078949399991,138.0,2.0,72.0,0.1,3,0.2855082000605762,0.43563419999554753,0,0.47782120015472174,0.6113164001144469,6,0.45116140018217266,0.6012497001793236,,,60.0,54.0,80621,60.0,
77,-77,45,17,14,286,10,,,,,,,,,,,session,3120.3695048999507,156.0,2.0,72.0,0.00965745043140772,2,0.7633966999128461,0.9301179999019951,0,0.46891129994764924,0.6191332000307739,0,0.54863870004192,0.7466192999854684,,,66.0,48.0,80621,60.0,
-77,-77,90,17,15,287,15,,,,,,,,,,,session,3129.2932637999766,174.0,2.0,72.0,0.00965745043140772,2,0.801657099975273,0.9692830999847502,0,0.43736370000988245,0.6033220000099391,0,0.36498060007579625,0.5150560999754816,,,72.0,63.0,80621,60.0,
-77,-77,45,18,0,288,14,,,,,,,,,,,session,3137.982829899993,144.0,2.0,72.0,0.00965745043140772,2,0.7011257999110967,0.8843986000865698,0,0.35786350001581013,0.5296710999682546,0,0.3378415999468416,0.5377789000049233,,,57.0,66.0,80621,60.0,
77,77,45,18,1,289,2,,,,,,,,,,,session,3145.8315347000025,150.0,2.0,72.0,0.00965745043140772,2,0.6309814001433551,0.8150729001499712,0,0.8860256001353264,1.219428800046444,0,0.40354289999231696,0.6529574000742286,,,51.0,72.0,80621,60.0,
77,-77,45,18,2,290,10,,,,,,,,,,,session,3154.5288616998587,144.0,2.0,72.0,0.1,4,0.6383062000386417,0.8369158999994397,7,1.472913600038737,1.5915775001049042,1,0.2390723000280559,0.4390221999492496,,,51.0,69.0,80621,60.0,
77,77,90,18,3,291,3,,,,,,,,,,,session,3163.235638400074,180.0,2.0,72.0,0.00965745043140772,2,0.7751681001391262,0.9756982000544667,0,0.3491795000154525,0.5825134001206607,0,0.44963709986768663,0.5982013000175357,,,63.0,57.0,80621,60.0,
77,77,0,18,4,292,1,,,,,,,,,,,session,3172.49591269996,138.0,2.0,72.0,0.1,5,0.301166599849239,0.434554300038144,0,0.3914232000242919,0.5386290999595076,6,0.9372662999667227,1.0715508998837322,,,48.0,54.0,80621,60.0,
-77,77,45,18,5,293,6,,,,,,,,,,,session,3179.9978223000653,138.0,2.0,72.0,0.00965745043140772,2,0.9383165000472218,1.1050889000762254,0,1.2443742998875678,1.4155299998819828,0,0.4347186000086367,0.6297406998928636,,,66.0,54.0,80621,60.0,
-77,77,0,18,6,294,5,,,,,,,,,,,session,3188.9084484998602,174.0,2.0,72.0,0.00965745043140772,2,0.3859841001685709,0.6026365000288934,0,0.31359619996510446,0.5128105999901891,0,0.16748409997671843,0.38577679987065494,,,63.0,57.0,80621,60.0,
-77,77,90,18,7,295,7,,,,,,,,,,,session,3196.946656799875,138.0,2.0,72.0,0.00965745043140772,2,0.7532868001144379,0.9363081001210958,0,0.012424599844962358,0.12054069992154837,0,0.8193808000069112,0.9862482000607997,,,51.0,57.0,80621,60.0,
77,77,-45,18,8,296,0,,,,,,,,,,,session,3204.532656899886,138.0,2.0,72.0,0.00965745043140772,2,1.0520182999316603,1.1590287999715656,0,0.011559499893337488,0.013447999954223633,0,0.2971569001674652,0.4676669000182301,,,54.0,63.0,80621,60.0,
-77,77,-45,18,9,297,4,,,,,,,,,,,session,3211.8971100999042,156.0,2.0,72.0,0.00965745043140772,2,1.7622251999564469,1.9275996000505984,0,0.3478671999182552,0.4812002999242395,0,0.34831389994360507,0.5317569999024272,,,57.0,66.0,80621,60.0,
-77,-77,90,18,10,298,15,,,,,,,,,,,session,3220.9446572999004,150.0,2.0,72.0,0.00965745043140772,2,0.7944551999680698,0.9280493999831378,0,0.012136199977248907,0.17192660016007721,0,0.03412969992496073,0.23634529998525977,,,48.0,60.0,80621,60.0,
77,-77,-45,18,11,299,8,,,,,,,,,,,session,3228.018149100011,132.0,2.0,72.0,0.1,4,0.3895071998704225,0.5898416000418365,1,0.5516738998703659,0.7542770998552442,6,0.3299585999920964,0.4657485999632627,,,60.0,54.0,80621,60.0,
77,-77,-45,18,11,299,8,,,materials/instructions\12_break.png,3235.4815847000573,3255.6250733998604,0,20.00835890020244,20.1417078000959,0.014134899945929646,20.14953020005487,,,,,,,,,,,,,,,,,,,,80621,60.0,
77,-77,0,18,12,300,9,,,,,,,,,,,session,3255.6413702000864,132.0,2.0,72.0,0.00965745043140772,2,0.6866704998537898,0.8206994000356644,0,0.4197698999196291,0.5697015000041574,0,0.6169861999806017,0.7842251998372376,,,63.0,57.0,80621,60.0,
-77,-77,-45,18,13,301,12,,,,,,,,,,,session,3263.564401099924,150.0,2.0,72.0,0.00965745043140772,2,0.5505204000510275,0.7014867998659611,0,1.1397386000026017,1.3067086001392454,0,0.41954010003246367,0.5874464998487383,,,63.0,54.0,80621,60.0,
-77,-77,0,18,14,302,13,,,,,,,,,,,session,3272.0516027000267,156.0,2.0,72.0,0.00965745043140772,2,0.3743370999582112,0.5291854999959469,0,0.4036696997936815,0.5826855998020619,0,0.33038830012083054,0.49704040004871786,,,51.0,66.0,80621,60.0,
77,-77,90,18,15,303,11,,,,,,,,,,,session,3279.827794800047,174.0,2.0,72.0,0.00965745043140772,2,0.36279239994473755,0.5296616998966783,0,0.4477130000013858,0.5649645000230521,0,0.3207483000587672,0.4708587001077831,,,51.0,54.0,80621,60.0,
-77,-77,0,19,0,304,13,,,,,,,,,,,session,3287.5125710999127,168.0,2.0,72.0,0.00965745043140772,2,0.7904739999212325,0.9904278998728842,0,0.319605499971658,0.47129120002500713,0,0.3015811999794096,0.4692154999356717,,,48.0,57.0,80621,60.0,
77,77,45,19,1,305,2,,,,,,,,,,,session,3295.469491499942,138.0,2.0,72.0,0.1,5,0.29670109995640814,0.4969482000451535,7,1.3695783000439405,1.516974899917841,1,1.2167634000070393,1.383459100034088,,,72.0,51.0,80621,60.0,
77,77,0,19,2,306,1,,,,,,,,,,,session,3305.096625200007,174.0,2.0,72.0,0.00965745043140772,2,1.9327859000768512,2.0670411998871714,0,0.011374700115993619,0.2391582999844104,0,0.3469645001459867,0.49730690009891987,,,69.0,72.0,80621,60.0,
-77,-77,45,19,3,307,14,,,,,,,,,,,session,3314.600244899979,156.0,2.0,72.0,0.1,3,0.45074410014785826,0.6008659999351948,7,1.4977522999979556,1.6525026999879628,6,0.9983912000898272,1.115137099986896,,,48.0,60.0,80621,60.0,
77,-77,90,19,4,308,11,,,,,,,,,,,session,3323.8103058999404,138.0,2.0,72.0,0.00965745043140772,2,1.0835212001111358,1.234449899988249,0,1.5865228998009115,1.786711299791932,0,0.3183862001169473,0.5019768001511693,,,57.0,66.0,80621,60.0,
77,77,-45,19,5,309,0,,,,,,,,,,,session,3333.130156399915,150.0,2.0,72.0,0.1,5,0.3600043999031186,0.5099599999375641,1,1.5861970998812467,1.8514316999353468,6,1.2955042999237776,1.4472586999181658,,,60.0,63.0,80621,60.0,
-77,-77,-45,19,6,310,12,,,,,,,,,,,session,3342.9337295999285,168.0,2.0,72.0,0.00965745043140772,2,0.9002883001230657,1.0171312000602484,0,0.3367132998537272,0.554140199907124,0,0.4160901000723243,0.5985687000211328,,,69.0,54.0,80621,60.0,
-77,77,-45,19,7,311,4,,,,,,,,,,,session,3351.646175999893,156.0,2.0,72.0,0.00965745043140772,2,0.6517384999897331,0.7685797999147326,0,0.688245200086385,0.8885242999531329,0,0.5656850999221206,0.7000949999783188,,,51.0,63.0,80621,60.0,
77,-77,45,19,8,312,10,,,,,,,,,,,session,3359.951897900086,174.0,2.0,72.0,0.00965745043140772,2,0.8088521000463516,0.980918199988082,0,0.5791277999524027,0.7962831000331789,0,0.384299400029704,0.6019951000344008,,,63.0,66.0,80621,60.0,
-77,77,90,19,9,313,7,,,,,,,,,,,session,3369.080584799871,132.0,2.0,72.0,0.00965745043140772,2,0.6293649000581354,0.7795814001001418,0,0.23762009991332889,0.4023198999930173,0,0.31566080008633435,0.465784200001508,,,51.0,51.0,80621,60.0,
-77,77,0,19,10,314,5,,,,,,,,,,,session,3376.097184000071,162.0,2.0,72.0,0.00965745043140772,2,1.5328212999738753,1.6663401999976486,0,0.0980271000880748,0.3173343001399189,0,0.2699611000716686,0.48677720013074577,,,51.0,69.0,80621,60.0,
-77,77,45,19,11,315,6,,,,,,,,,,,session,3384.7399517998565,156.0,2.0,72.0,0.00965745043140772,2,0.7630020999349654,0.9157004000153393,0,0.33400959987193346,0.5340276998467743,0,0.3124526001047343,0.4624433999415487,,,63.0,63.0,80621,60.0,
-77,-77,90,19,12,316,15,,,,,,,,,,,session,3393.5137485000305,156.0,2.0,72.0,0.00965745043140772,2,0.8067258999217302,0.9576661998871714,0,0.3765920998994261,0.5934665999375284,0,0.41748139983974397,0.585729599930346,,,54.0,54.0,80621,60.0,
77,-77,-45,19,13,317,8,,,,,,,,,,,session,3401.483656599885,162.0,2.0,72.0,0.00965745043140772,2,0.9028004999272525,1.052907699951902,0,0.4129239001777023,0.5797616001218557,0,1.4422043000813574,1.6629280999768525,,,69.0,57.0,80621,60.0,
77,-77,0,19,14,318,9,,,,,,,,,,,session,3411.03143740003,126.0,2.0,72.0,0.00965745043140772,2,0.8342490999493748,0.9524157999549061,0,0.5544189000502229,0.7046310999430716,0,0.3474146998487413,0.4973173998296261,,,48.0,66.0,80621,60.0,
77,77,90,19,15,319,3,,,,,,,,,,,session,3418.645903599914,150.0,2.0,72.0,0.1,5,0.21908650011755526,0.46929530007764697,6,0.38991309981793165,0.5409470999147743,6,0.16368040000088513,0.36374699999578297,,,63.0,72.0,80621,60.0,
77,77,90,19,15,319,3,,,materials/instructions\12_break.png,3426.243601999944,3431.0546953000594,0,4.725554700009525,4.809087599860504,0.010228099999949336,4.82239990006201,,,,,,,,,,,,,,,,,,,,80621,60.0,
77,-77,-45,20,0,320,8,,,,,,,,,,,session,3431.076356000034,162.0,2.0,72.0,0.00965745043140772,2,1.452173399971798,1.5849957999307662,0,0.36688699992373586,0.5656908000819385,0,0.3999376001302153,0.6169310000259429,,,48.0,57.0,80621,60.0,
77,77,45,20,1,321,2,,,,,,,,,,,session,3440.199015900027,132.0,2.0,72.0,0.00965745043140772,2,0.7802462999243289,0.9136900000739843,0,0.38493679999373853,0.5850740999449044,0,0.33686290006153286,0.4869274999946356,,,72.0,66.0,80621,60.0,
-77,-77,45,20,2,322,14,,,,,,,,,,,session,3448.1519957000855,180.0,2.0,72.0,0.1,3,0.3687801999039948,0.6031076000072062,7,1.0355009997729212,1.2713154999073595,6,0.2816045000217855,0.48075270000845194,,,69.0,69.0,80621,60.0,
-77,77,-45,20,3,323,4,,,,,,,,,,,session,3457.3283988998737,156.0,2.0,72.0,0.00965745043140772,2,0.9658511998131871,1.1159721999429166,0,0.46744449995458126,0.5674898999277502,0,0.35351560008712113,0.537617800058797,,,51.0,66.0,80621,60.0,
77,77,90,20,4,324,3,,,,,,,,,,,session,3465.5495056998916,174.0,2.0,72.0,0.1,5,0.3831714999396354,0.5355456999968737,6,0.30266849999316037,0.5023787000682205,6,0.36540280003100634,0.4653789000585675,,,66.0,60.0,80621,60.0,
77,-77,45,20,5,325,10,,,,,,,,,,,session,3473.4871304999106,168.0,2.0,72.0,0.00965745043140772,2,1.1645788000896573,1.2482549000997096,0,0.8498219999019057,1.0503728999756277,0,1.6671555999200791,1.884281300008297,,,69.0,63.0,80621,60.0,
77,-77,90,20,6,326,11,,,,,,,,,,,session,3484.7163209000137,132.0,2.0,72.0,0.00965745043140772,2,0.6355348001234233,0.8523544000927359,0,0.45569650013931096,0.5558299000840634,0,0.30892919981852174,0.4904942000284791,,,72.0,51.0,80621,60.0,
77,77,0,20,7,327,1,,,,,,,,,,,session,3492.3023741000798,180.0,2.0,72.0,0.1,5,0.17870630021207035,0.440502000041306,0,0.550695100100711,0.7551142000593245,6,0.44792930013500154,0.6702703000046313,,,57.0,66.0,80621,60.0,
-77,77,0,20,8,328,5,,,,,,,,,,,session,3500.8188173000235,138.0,2.0,72.0,0.00965745043140772,2,0.7954261000268161,0.9446678999811411,0,0.3684807000681758,0.5686713000759482,0,0.4973220999818295,0.713288800092414,,,60.0,66.0,80621,60.0,
-77,77,90,20,9,329,7,,,,,,,,,,,session,3508.9307170999236,126.0,2.0,72.0,0.1,2,0.4038511000107974,0.5372442998923361,6,0.35389319993555546,0.5551129998639226,6,0.8164090998470783,1.033252599881962,,,72.0,66.0,80621,60.0,
-77,-77,-45,20,10,330,12,,,,,,,,,,,session,3516.905187699944,174.0,2.0,72.0,0.1,3,0.4008126000408083,0.6040793000720441,1,0.9697805000469089,1.1193289998918772,6,0.29753330000676215,0.4487139000557363,,,63.0,48.0,80621,60.0,
77,-77,0,20,11,331,9,,,,,,,,,,,session,3525.8338182999287,156.0,2.0,72.0,0.00965745043140772,2,1.0528607000596821,1.2186646999325603,0,0.28530680015683174,0.5358445001766086,0,0.41989949997514486,0.6214155999477953,,,72.0,48.0,80621,60.0,
77,77,-45,20,12,332,0,,,,,,,,,,,session,3534.2689376999624,126.0,2.0,72.0,0.00965745043140772,2,0.8205695999786258,0.9530589000787586,0,0.37371669989079237,0.5716685999650508,0,0.4411339000798762,0.574773000087589,,,63.0,51.0,80621,60.0,
-77,-77,0,20,13,333,13,,,,,,,,,,,session,3541.8276720999274,180.0,2.0,72.0,0.1,3,0.33273499994538724,0.5660053000319749,0,0.8959616001229733,1.1965824000071734,6,0.8706187999341637,1.0039799001533538,,,51.0,69.0,80621,60.0,
-77,-77,90,20,14,334,15,,,,,,,,,,,session,3551.331635199953,150.0,2.0,72.0,0.00965745043140772,2,1.0036516999825835,1.1529690998140723,0,1.0781606999225914,1.2446881998330355,0,0.48042359994724393,0.6639474998228252,,,60.0,63.0,80621,60.0,
-77,77,45,20,15,335,6,,,,,,,,,,,session,3560.3717312000226,174.0,2.0,72.0,0.00965745043140772,2,0.44289810000918806,0.5763081000186503,0,0.44991929992102087,0.5830133999697864,0,0.3678494000341743,0.5345634000841528,,,66.0,60.0,80621,60.0,
-77,77,90,21,0,336,7,,,,,,,,,,,session,3569.1961377998814,168.0,2.0,72.0,0.00965745043140772,2,0.9474227998871356,1.1142109998036176,0,0.9039503000676632,1.1040560000110418,0,0.38267520000226796,0.5501880999654531,,,66.0,66.0,80621,60.0,
-77,-77,45,21,1,337,14,,,,,,,,,,,session,3578.4186108000576,138.0,2.0,72.0,0.00965745043140772,2,0.620868599973619,0.7545797999482602,0,0.011683600023388863,0.20674950000829995,0,0.09653869993053377,0.3136728999670595,,,66.0,69.0,80621,60.0,
77,-77,45,21,2,338,10,,,,,,,,,,,session,3585.683374400018,138.0,2.0,72.0,0.00965745043140772,2,0.5292237000539899,0.5978351000230759,0,0.011480199871584773,0.013383100042119622,0,0.012829900020733476,0.014722499996423721,,,69.0,72.0,80621,60.0,
77,77,0,21,3,339,1,,,,,,,,,,,session,3592.8385773000773,144.0,2.0,72.0,0.00965745043140772,2,0.8853703001514077,1.0187882001046091,0,0.2379961998667568,0.4715092999394983,0,0.5699191999156028,0.7386187999509275,,,69.0,57.0,80621,60.0,
77,77,0,21,3,339,1,,,materials/instructions\12_break.png,3601.049427199876,3602.7498226999305,0,1.515101999975741,1.6984884000848979,0.020038099959492683,1.7063843999058008,,,,,,,,,,,,,,,,,,,,80621,60.0,
-77,77,0,21,4,340,5,,,,,,,,,,,session,3602.7655652998947,126.0,2.0,72.0,0.00965745043140772,2,0.6845404000487179,0.8261102000251412,0,0.07879830012097955,0.3416548001114279,0,0.6641724999062717,0.8865798998158425,,,48.0,66.0,80621,60.0,
77,77,90,21,5,341,3,,,,,,,,,,,session,3610.3022807999514,180.0,2.0,72.0,0.00965745043140772,2,0.42090289993211627,0.5364341998938471,0,0.4162516000214964,0.6996901999227703,0,0.40172500000335276,0.636507699964568,,,51.0,51.0,80621,60.0,
77,77,45,21,6,342,2,,,,,,,,,,,session,3618.349258400034,138.0,2.0,72.0,0.00965745043140772,2,0.9417355998884887,1.323819800047204,0,0.26799919991753995,0.518192500108853,0,0.18133409996517003,0.3813761998899281,,,63.0,57.0,80621,60.0,
-77,77,45,21,7,343,6,,,,,,,,,,,session,3626.320777799934,126.0,2.0,72.0,0.00965745043140772,2,0.5905004998203367,0.7455376998987049,0,0.16481780004687607,0.3857770999893546,0,0.010887699900195003,0.2634163999464363,,,66.0,63.0,80621,60.0,
