x,y,orientation,.thisRepN,.thisTrialN,.thisN,.thisIndex,.stepSize,.intensity,image_name,global_start_time,global_end_time,pressKey,pressRT,releaseRT,image_started,image_ended,name,globalTime,fixation_dur,stimulation_dur,post_fixation,opacity,locationResponse_pressKey,locationResponse_pressRT,locationResponse_releaseRT,orientationResponse_pressKey,orientationResponse_pressRT,orientationResponse_releaseRT,pasResponse_pressKey,pasResponse_pressRT,pasResponse_releaseRT,.response,finalOpacity,postLoc,postOri,ID,frameRate,
,,,0,-1,-1,0,0.0969100130080564,None,materials/instructions\1_welcome.png,3.8657201000005443,63.664866999999504,0,59.6466662999992,59.7967521999999,0.07421470000008412,59.80042749999848,,,,,,,,,,,,,,,,,,,,85311,60.0,
,,,0,-1,-1,0,0.0969100130080564,None,materials/instructions\2_instruction.png,63.71777810000094,113.06972900000073,0,49.21681630000057,49.35024909999993,0.01632170000084443,49.361600300000646,,,,,,,,,,,,,,,,,,,,85311,60.0,
,,,0,-1,-1,0,0.0969100130080564,None,materials/instructions\3_location_demo.png,113.13354020000043,129.36473250000017,0,16.06283590000021,16.229619800000364,0.022422000000005937,16.237342000000353,,,,,,,,,,,,,,,,,,,,85311,60.0,
,,,0,-1,-1,0,0.0969100130080564,None,materials/instructions\4_orientation_demo.png,129.42425399999956,168.09379649999937,0,38.45055429999957,38.66741910000019,0.010900699999183416,38.675314699999944,,,,,,,,,,,,,,,,,,,,85311,60.0,
,,,0,-1,-1,0,0.0969100130080564,None,materials/instructions\5_pas_demo.png,168.1467861000001,196.16539150000062,0,27.866719399999056,28.01664979999987,0.01749750000089989,28.024787000000288,,,,,,,,,,,,,,,,,,,,85311,60.0,
152,152,-45,0,-1,-1,0,0.0969100130080564,None,,,,,,,,,session,196.18130519999977,162.0,2.0,72.0,1.0,5,3.1824596999995265,3.3323693000002095,1,2.8720603000001574,3.055855700000393,6,3.7017650000016147,3.9163168000013684,,,,,85311,60.0,
152,152,45,0,-1,-1,0,0.0969100130080564,None,,,,,,,,,session,210.92635080000036,156.0,2.0,72.0,1.0,5,2.159519500000897,2.3430599000002985,7,1.9102014999989478,2.1102918999986287,7,3.6230517999993026,3.801801499999783,,,,,85311,60.0,
-152,152,-45,0,-1,-1,0,0.0969100130080564,None,,,,,,,,,session,223.17490519999956,150.0,2.0,72.0,1.0,2,1.6667424999996001,1.8478302000003168,1,1.3553820000015548,1.5375103000005765,7,2.1955746000003273,2.4283525999999256,,,,,85311,60.0,
152,152,0,0,-1,-1,0,0.0969100130080564,None,,,,,,,,,session,233.08204750000004,156.0,2.0,72.0,1.0,5,1.4616273000010551,1.6784463000003598,0,1.9459353999991436,2.16120729999966,7,2.395588900000803,2.579174899999998,,,,,85311,60.0,
152,152,90,0,-1,-1,0,0.0969100130080564,None,,,,,,,,,session,243.4707443999996,150.0,2.0,72.0,1.0,5,1.7674909999986994,1.9844610999989527,6,1.6148163999987446,1.813165099998514,7,1.1872353999988263,1.4549533999997948,,,,,85311,60.0,
,,,0,-1,-1,0,0.0969100130080564,None,materials/instructions\10_staircase_start.png,253.28225949999978,295.46000099999947,0,42.01063339999928,42.175697599999694,0.014603400000851252,42.18425109999953,,,,,,,,,,,,,,,,,,,,85311,60.0,
,,,0,0,-1,0,0.0969100130080564,0.4,,,,,,,,,staircase,295.47498970000015,144.0,2.0,72.0,0.4,,,,6,2.425731299999825,2.608635900000081,,,,1,,,,85311,60.0,
,,,0,1,-1,0,0.0969100130080564,0.32,,,,,,,,,staircase,301.7967855000006,156.0,2.0,72.0,0.32,,,,0,1.1924287999991066,1.3434747999999672,,,,1,,,,85311,60.0,
,,,0,2,-1,0,0.0969100130080564,0.256,,,,,,,,,staircase,307.0530352000005,144.0,2.0,72.0,0.256,,,,6,1.2174620000005234,1.3886593000006542,,,,1,,,,85311,60.0,
,,,0,3,-1,0,0.0969100130080564,0.2048,,,,,,,,,staircase,312.3788875000009,132.0,2.0,72.0,0.2048,,,,0,0.7107304000001022,0.8620467000000644,,,,1,,,,85311,60.0,
,,,0,4,-1,0,0.0969100130080564,0.16384,,,,,,,,,staircase,316.76093650000075,144.0,2.0,72.0,0.16384,,,,7,1.2126126999992266,1.3627888999999413,,,,1,,,,85311,60.0,
,,,0,5,-1,0,0.0969100130080564,0.13107200000000002,,,,,,,,,staircase,321.8294965999994,138.0,2.0,72.0,0.13107200000000002,,,,0,1.1463801999998395,1.2964609999999084,,,,1,,,,85311,60.0,
,,,0,6,-1,0,0.0969100130080564,0.10485760000000002,,,,,,,,,staircase,326.73319450000054,144.0,2.0,72.0,0.10485760000000002,,,,7,1.3787917999998172,1.5455971999999747,,,,1,,,,85311,60.0,
,,,0,7,-1,0,0.0969100130080564,0.08388608000000002,,,,,,,,,staircase,331.9865659999996,138.0,2.0,72.0,0.08388608000000002,,,,7,0.8210343999999168,0.9889267999988078,,,,1,,,,85311,60.0,
,,,0,8,-1,0,0.0969100130080564,0.06710886400000002,,,,,,,,,staircase,337.1479271999997,150.0,2.0,72.0,0.06710886400000002,,,,6,1.3620854999990115,1.5261538999984623,,,,1,,,,85311,60.0,
,,,0,9,-1,0,0.0969100130080564,0.053687091200000016,,,,,,,,,staircase,342.51153160000104,168.0,2.0,72.0,0.053687091200000016,,,,6,1.3470593999991252,1.4969824999989214,,,,1,,,,85311,60.0,
,,,0,10,-1,0,0.0969100130080564,0.04294967296000001,,,,,,,,,staircase,348.1150835999997,180.0,2.0,72.0,0.04294967296000001,,,,6,1.5474906999988889,1.7054002999993827,,,,1,,,,85311,60.0,
,,,0,11,-1,0,0.0969100130080564,0.034359738368000006,,,,,,,,,staircase,354.12847730000067,180.0,2.0,72.0,0.034359738368000006,,,,0,1.124001899999712,1.2739215000001423,,,,1,,,,85311,60.0,
,,,0,12,-1,0,0.0969100130080564,0.027487790694400004,,,,,,,,,staircase,360.3124029999999,156.0,2.0,72.0,0.027487790694400004,,,,7,1.3432759000006627,1.5101054000006116,,,,1,,,,85311,60.0,
,,,0,13,-1,0,0.0969100130080564,0.021990232555520003,,,,,,,,,staircase,365.7313840000006,174.0,2.0,72.0,0.021990232555520003,,,,0,2.5934388999994553,2.7285909000001993,,,,0,,,,85311,60.0,
,,,0,14,-1,0,0.0969100130080564,0.027487790694400004,,,,,,,,,staircase,372.6700768999999,180.0,2.0,72.0,0.027487790694400004,,,,7,1.474210000000312,1.6907572000000073,,,,1,,,,85311,60.0,
,,,0,15,-1,0,0.0969100130080564,0.021990232555520003,,,,,,,,,staircase,378.8966010000004,126.0,2.0,72.0,0.021990232555520003,,,,7,1.9300552000004245,2.127969299999677,,,,0,,,,85311,60.0,
,,,0,16,-1,0,0.0969100130080564,0.027487790694400004,,,,,,,,,staircase,384.46085700000003,150.0,2.0,72.0,0.027487790694400004,,,,7,1.6096395000004122,1.8266105000002426,,,,1,,,,85311,60.0,
,,,0,17,-1,0,0.0969100130080564,0.021990232555520003,,,,,,,,,staircase,390.0983400999994,162.0,2.0,72.0,0.021990232555520003,,,,7,1.695097399999213,1.9786450999999943,,,,0,,,,85311,60.0,
,,,0,18,-1,0,0.0969100130080564,0.027487790694400004,,,,,,,,,staircase,396.0860733999998,150.0,2.0,72.0,0.027487790694400004,,,,6,1.456822199999806,1.676727199999732,,,,1,,,,85311,60.0,
,,,0,19,-1,0,0.0969100130080564,0.021990232555520003,,,,,,,,,staircase,402.09655680000105,150.0,2.0,72.0,0.021990232555520003,,,,7,1.4462162999989232,1.7992450000001554,,,,0,,,,85311,60.0,
,,,0,20,-1,0,0.0969100130080564,0.027487790694400004,,,,,,,,,staircase,407.7133355999995,174.0,2.0,72.0,0.027487790694400004,,,,7,1.1077022000008583,1.307849200000419,,,,1,,,,85311,60.0,
,,,0,21,-1,0,0.0969100130080564,0.021990232555520003,,,,,,,,,staircase,413.2315744999996,150.0,2.0,72.0,0.021990232555520003,,,,6,2.1260301000002073,2.275326999999379,,,,0,,,,85311,60.0,
,,,0,22,-1,0,0.0969100130080564,0.027487790694400004,,,,,,,,,staircase,419.33657029999995,132.0,2.0,72.0,0.027487790694400004,,,,7,0.8713174999993498,1.0712136999991344,,,,1,,,,85311,60.0,
,,,0,23,-1,0,0.0969100130080564,0.021990232555520003,,,,,,,,,staircase,424.5302867999999,168.0,2.0,72.0,0.021990232555520003,,,,6,1.5089109999989887,1.675682200000665,,,,0,,,,85311,60.0,
,,,0,24,-1,0,0.0969100130080564,0.027487790694400004,,,,,,,,,staircase,430.3286623999993,174.0,2.0,72.0,0.027487790694400004,,,,6,1.0369559000009758,1.2204732000009244,,,,1,,,,85311,60.0,
,,,0,25,-1,0,0.0969100130080564,0.021990232555520003,,,,,,,,,staircase,435.7661095000003,180.0,2.0,72.0,0.021990232555520003,,,,6,1.3475783999983832,1.514425699999265,,,,0,,,,85311,60.0,
,,,0,26,-1,0,0.0969100130080564,0.027487790694400004,,,,,,,,,staircase,441.5899418000008,144.0,2.0,72.0,0.027487790694400004,,,,1,1.7871786999985488,2.038950999998633,,,,0,,,,85311,60.0,
,,,0,27,-1,0,0.0969100130080564,0.034359738368000006,,,,,,,,,staircase,448.11366050000106,174.0,2.0,72.0,0.034359738368000006,,,,6,0.8552173999996739,1.05537749999894,,,,1,,,,85311,60.0,
,,,0,28,-1,0,0.0969100130080564,0.027487790694400004,,,,,,,,,staircase,453.37910270000066,156.0,2.0,72.0,0.027487790694400004,,,,6,1.3298128000005818,1.4956525000015972,,,,0,,,,85311,60.0,
,,,0,29,-1,0,0.0969100130080564,0.034359738368000006,,,,,,,,,staircase,458.78393080000023,174.0,2.0,72.0,0.034359738368000006,,,,0,0.6128984000006312,0.8464327000001504,,,,1,,,,85311,60.0,
,,,0,30,-1,0,0.0969100130080564,0.027487790694400004,,,,,,,,,staircase,463.83788939999977,156.0,2.0,72.0,0.027487790694400004,,,,0,0.7555487000008725,1.0077469000007113,,,,1,,,,85311,60.0,
,,,0,31,-1,0,0.0969100130080564,0.021990232555520003,,,,,,,,,staircase,469.31254629999967,162.0,2.0,72.0,0.021990232555520003,,,,7,1.1116901000004873,1.3605294999997568,,,,1,,,,85311,60.0,
,,,0,32,-1,0,0.0969100130080564,0.017592186044416,,,,,,,,,staircase,474.6791510000003,162.0,2.0,72.0,0.017592186044416,,,,1,2.2605049000012514,2.44381919999978,,,,0,,,,85311,60.0,
,,,0,33,-1,0,0.0969100130080564,0.021990232555520003,,,,,,,,,staircase,481.13412100000096,174.0,2.0,72.0,0.021990232555520003,,,,7,1.1275100000002567,1.2942315000000235,,,,0,,,,85311,60.0,
,,,0,34,-1,0,0.0969100130080564,0.027487790694400004,,,,,,,,,staircase,486.6379417999997,162.0,2.0,72.0,0.027487790694400004,,,,0,0.4902505999998539,0.7736349000006157,,,,1,,,,85311,60.0,
,,,0,35,-1,0,0.0969100130080564,0.021990232555520003,,,,,,,,,staircase,491.96413140000004,138.0,2.0,72.0,0.021990232555520003,,,,0,0.9505965999996988,1.1512406999991072,,,,0,,,,85311,60.0,
,,,0,36,-1,0,0.0969100130080564,0.027487790694400004,,,,,,,,,staircase,496.7131719000008,126.0,2.0,72.0,0.027487790694400004,,,,7,1.03152129999944,1.2462193000010302,,,,1,,,,85311,60.0,
,,,0,37,-1,0,0.0969100130080564,0.021990232555520003,,,,,,,,,staircase,501.3659836000006,132.0,2.0,72.0,0.021990232555520003,,,,6,1.357620400000087,1.5745313999996142,,,,0,,,,85311,60.0,
,,,0,38,-1,0,0.0969100130080564,0.027487790694400004,,,,,,,,,staircase,506.4529306000004,156.0,2.0,72.0,0.027487790694400004,,,,1,1.1656803999994736,1.417962699999407,,,,1,,,,85311,60.0,
,,,0,39,-1,0,0.0969100130080564,0.021990232555520003,,,,,,,,,staircase,512.3827882000005,156.0,2.0,72.0,0.021990232555520003,,,,0,1.290611299999,1.4577935999986948,,,,1,,,,85311,60.0,
,,,0,40,-1,0,0.0969100130080564,0.017592186044416,,,,,,,,,staircase,517.7629231999999,174.0,2.0,72.0,0.017592186044416,,,,0,0.6410925999989558,0.8080128999990848,,,,1,,,,85311,60.0,
,,,0,41,-1,0,0.0969100130080564,0.014073748835532801,,,,,,,,,staircase,522.7820616999998,180.0,2.0,72.0,0.014073748835532801,,,,0,0.6463387000003422,0.7958936000013637,,,,1,,,,85311,60.0,
,,,0,42,-1,0,0.0969100130080564,0.01125899906842624,,,,,,,,,staircase,527.8866624000002,150.0,2.0,72.0,0.01125899906842624,,,,0,0.5941204999999172,0.725881099999242,,,,0,,,,85311,60.0,
,,,0,43,-1,0,0.0969100130080564,0.014073748835532801,,,,,,,,,staircase,532.6804673999995,138.0,2.0,72.0,0.014073748835532801,,,,0,1.478836099999171,1.7123297999987699,,,,0,,,,85311,60.0,
,,,0,44,-1,0,0.0969100130080564,0.017592186044416,,,,,,,,,staircase,538.1816368,138.0,2.0,72.0,0.017592186044416,,,,0,0.7311000999998214,0.9127289000007295,,,,0,,,,85311,60.0,
,,,0,45,-1,0,0.0969100130080564,0.021990232555520003,,,,,,,,,staircase,542.6986890999997,162.0,2.0,72.0,0.021990232555520003,,,,0,0.9146185999998124,1.1474061999997502,,,,0,,,,85311,60.0,
,,,0,46,-1,0,0.0969100130080564,0.027487790694400004,,,,,,,,,staircase,547.868544500001,138.0,2.0,72.0,0.027487790694400004,,,,7,0.9561236999998073,1.1376193999985844,,,,0,,,,85311,60.0,
,,,0,47,-1,0,0.0969100130080564,0.034359738368000006,,,,,,,,,staircase,552.6056499000006,150.0,2.0,72.0,0.034359738368000006,,,,0,0.9225714000003791,1.1085433999996894,,,,1,,,,85311,60.0,
,,,0,48,-1,0,0.0969100130080564,0.027487790694400004,,,,,,,,,staircase,558.1837372999998,156.0,2.0,72.0,0.027487790694400004,,,,1,0.9494665999991412,1.25002399999903,,,,1,,,,85311,60.0,
,,,0,49,-1,0,0.0969100130080564,0.021990232555520003,,,,,,,,,staircase,563.3641164000001,180.0,2.0,72.0,0.021990232555520003,,,,0,0.6137244000001374,0.7962158999998792,,,,1,,,,85311,60.0,
,,,0,50,-1,0,0.0969100130080564,0.017592186044416,,,,,,,,,staircase,568.4668309000008,180.0,2.0,72.0,0.017592186044416,,,,0,0.5863303000005544,0.7345289000004414,,,,1,,,,85311,60.0,
,,,0,51,-1,0,0.0969100130080564,0.014073748835532801,,,,,,,,,staircase,573.5041153000002,144.0,2.0,72.0,0.014073748835532801,,,,0,0.5061285000010685,0.6557626000012533,,,,0,,,,85311,60.0,
,,,0,52,-1,0,0.0969100130080564,0.017592186044416,,,,,,,,,staircase,578.431037100001,144.0,2.0,72.0,0.017592186044416,,,,0,0.5750253999995039,0.7252750999996351,,,,0,,,,85311,60.0,
,,,0,53,-1,0,0.0969100130080564,0.021990232555520003,,,,,,,,,staircase,582.882603,126.0,2.0,72.0,0.021990232555520003,,,,0,0.5153909999989992,0.716716599999927,,,,1,,,,85311,60.0,
,,,0,54,-1,0,0.0969100130080564,0.017592186044416,,,,,,,,,staircase,586.9993811999993,180.0,2.0,72.0,0.017592186044416,,,,0,0.444394199999806,0.694521800000075,,,,1,,,,85311,60.0,
,,,0,55,-1,0,0.0969100130080564,0.014073748835532801,,,,,,,,,staircase,592.0188134,156.0,2.0,72.0,0.014073748835532801,,,,0,0.6301060999994661,0.8957559999998921,,,,1,,,,85311,60.0,
,,,0,56,-1,0,0.0969100130080564,0.01125899906842624,,,,,,,,,staircase,596.822011100001,126.0,2.0,72.0,0.01125899906842624,,,,0,0.42408900000009453,0.6544985000000452,,,,1,,,,85311,60.0,
,,,0,57,-1,0,0.0969100130080564,0.009007199254740993,,,,,,,,,staircase,601.4451621999997,132.0,2.0,72.0,0.009007199254740993,,,,0,0.7419501999993372,1.0424034999996366,,,,0,,,,85311,60.0,
,,,0,58,-1,0,0.0969100130080564,0.01125899906842624,,,,,,,,,staircase,605.9985419999994,162.0,2.0,72.0,0.01125899906842624,,,,0,0.5640483999995922,0.7819342000002507,,,,0,,,,85311,60.0,
,,,0,59,-1,0,0.0969100130080564,0.014073748835532801,,,,,,,,,staircase,610.7836552000008,144.0,2.0,72.0,0.014073748835532801,,,,0,0.6814032000002044,0.9152390999988711,,,,0,,,,85311,60.0,
,,,0,60,-1,0,0.0969100130080564,0.017592186044416,,,,,,,,,staircase,615.4042057000006,162.0,2.0,72.0,0.017592186044416,,,,0,2.172989400000006,2.4602790999997524,,,,1,,,,85311,60.0,
,,,0,61,-1,0,0.0969100130080564,0.014073748835532801,,,,,,,,,staircase,621.8986070999999,138.0,2.0,72.0,0.014073748835532801,,,,0,0.6248056000003999,0.9236015999995288,,,,0,,,,85311,60.0,
,,,0,62,-1,0,0.0969100130080564,0.017592186044416,,,,,,,,,staircase,626.4476766999996,150.0,2.0,72.0,0.017592186044416,,,,0,0.475571699998909,0.8254383000003145,,,,0,,,,85311,60.0,
,,,0,63,-1,0,0.0969100130080564,0.021990232555520003,,,,,,,,,staircase,631.0809509999999,138.0,2.0,72.0,0.021990232555520003,,,,0,0.5817146000008506,0.9651995000003808,,,,0,,,,85311,60.0,
,,,0,64,-1,0,0.0969100130080564,0.027487790694400004,,,,,,,,,staircase,635.6524157999993,174.0,2.0,72.0,0.027487790694400004,,,,0,0.643695700000535,0.8075716000003013,,,,0,,,,85311,60.0,
,,,0,65,-1,0,0.0969100130080564,0.034359738368000006,,,,,,,,,staircase,640.6519644,174.0,2.0,72.0,0.034359738368000006,,,,7,0.9514469999994617,1.1673250000003463,,,,1,,,,85311,60.0,
,,,0,66,-1,0,0.0969100130080564,0.027487790694400004,,,,,,,,,staircase,646.0129201,168.0,2.0,72.0,0.027487790694400004,,,,6,1.0621812999997928,1.325629500001014,,,,1,,,,85311,60.0,
,,,0,67,-1,0,0.0969100130080564,0.021990232555520003,,,,,,,,,staircase,651.4294370999996,168.0,2.0,72.0,0.021990232555520003,,,,0,0.957081599999583,1.1421064000005572,,,,0,,,,85311,60.0,
,,,0,68,-1,0,0.0969100130080564,0.027487790694400004,,,,,,,,,staircase,656.667609600001,138.0,2.0,72.0,0.027487790694400004,,,,7,1.0138396000002103,1.2481606000001193,,,,1,,,,85311,60.0,
,,,0,69,-1,0,0.0969100130080564,0.021990232555520003,,,,,,,,,staircase,661.5217874000009,174.0,2.0,72.0,0.021990232555520003,,,,0,0.6557348999995156,0.8229453000003559,,,,0,,,,85311,60.0,
,,,0,-1,-1,0,,,materials/instructions\11_session_start.png,667.2104737000009,696.9654014999996,0,29.553964000000633,29.752979500000947,0.023213799999211915,29.761380799998733,,,,,,,,,,,,,,,,,,,,85311,60.0,
,,,0,-1,-1,0,,,,,,,,,,,,,,,,,,,,,,,,,,,0.01961572724417495,,,85311,60.0,
-152,152,45,0,0,0,6,,,,,,,,,,,session,696.9830610000008,132.0,2.0,72.0,0.01961572724417495,5,2.456280800000968,2.5901536000001215,0,0.743495200000325,0.911191900000631,0,1.0807327999991685,1.3157486000000063,,,72.0,60.0,85311,60.0,
-152,-152,0,0,1,1,13,,,,,,,,,,,session,707.6785068000008,138.0,2.0,72.0,0.01961572724417495,2,1.6214159999999538,1.8224317999993218,0,0.7885294999996404,0.9385720000009314,0,1.2059879999997065,1.4730433000004268,,,51.0,72.0,85311,60.0,
152,-152,-45,0,2,2,8,,,,,,,,,,,session,718.3336894999993,180.0,2.0,72.0,0.01961572724417495,5,1.3114748999996664,1.4616243000000395,0,0.5620431999996072,0.7139983999986725,0,2.0099238000002515,2.1773434999995516,,,60.0,72.0,85311,60.0,
152,152,90,0,3,3,3,,,,,,,,,,,session,729.3419637999996,174.0,2.0,72.0,0.01961572724417495,2,1.3534094999995432,1.5367439000001468,0,0.4963876000001619,0.6466400999997859,0,0.6084645999999339,0.8085932999983925,,,69.0,48.0,85311,60.0,
-152,-152,-45,0,4,4,12,,,,,,,,,,,session,739.2519097999993,156.0,2.0,72.0,0.01961572724417495,3,1.6933914000001096,1.9600092000000586,0,1.6290888999992603,1.8126791999984562,1,1.4812423999992461,1.646910299999945,,,63.0,57.0,85311,60.0,
152,-152,90,0,5,5,11,,,,,,,,,,,session,750.7240908999993,138.0,2.0,72.0,0.01961572724417495,4,1.2542951000014,1.5213207000015245,6,1.1775402999992366,1.3613795000001119,1,1.2902443000002677,1.5084929000004195,,,51.0,72.0,85311,60.0,
-152,152,0,0,6,6,5,,,,,,,,,,,session,761.5498323000011,132.0,2.0,72.0,0.01961572724417495,2,1.4601299000005383,1.6427127999995719,0,0.44633210000029067,0.6131402999999409,0,0.993110200000956,1.2431639000005816,,,60.0,54.0,85311,60.0,
-152,152,90,0,7,7,7,,,,,,,,,,,session,770.6069019000006,168.0,2.0,72.0,0.01961572724417495,2,1.1585973999990529,1.3085773999991943,0,0.5489307000007102,0.7164420999997674,0,1.556700400000409,1.7427521999998135,,,48.0,69.0,85311,60.0,
152,152,-45,0,8,8,0,,,,,,,,,,,session,780.8526586000007,156.0,2.0,72.0,0.01961572724417495,2,1.12524459999986,1.2752712000001338,0,0.8599251999985427,1.0434612999997626,0,0.4962648000000627,0.7780670000011014,,,60.0,63.0,85311,60.0,
-152,-152,90,0,9,9,15,,,,,,,,,,,session,790.0723727999994,138.0,2.0,72.0,0.01961572724417495,2,1.2473229999995965,1.414088499999707,0,1.420832200001314,1.57560790000025,0,0.30353679999825545,0.457586699998501,,,60.0,54.0,85311,60.0,
152,-152,0,0,10,10,9,,,,,,,,,,,session,799.1699318999999,138.0,2.0,72.0,0.01961572724417495,2,2.0662119000007806,2.2334014999996725,0,0.6405402000000322,0.7740276999993512,0,0.5616893000005803,0.7284283000008145,,,63.0,72.0,85311,60.0,
152,-152,45,0,11,11,10,,,,,,,,,,,session,808.9184588000007,150.0,2.0,72.0,0.01961572724417495,2,1.0473140999984025,1.1961949999986246,0,0.4455218999992212,0.7304840999986482,0,0.46004530000027444,0.6122235999991972,,,48.0,60.0,85311,60.0,
-152,152,-45,0,12,12,4,,,,,,,,,,,session,817.2094314000005,132.0,2.0,72.0,0.01961572724417495,2,0.9379145999992033,1.0549021000006178,0,0.5935138000004372,0.8430129000007582,0,1.1603900999998586,1.2926650000008522,,,72.0,66.0,85311,60.0,
-152,-152,45,0,13,13,14,,,,,,,,,,,session,827.0346709000005,144.0,2.0,72.0,0.01961572724417495,2,0.8085448999991058,0.9407379000003857,0,0.6147249999994528,0.7472011999998358,0,3.298267800000758,3.464424699999654,,,51.0,72.0,85311,60.0,
152,152,0,0,14,14,1,,,,,,,,,,,session,838.0915734999999,132.0,2.0,72.0,0.01961572724417495,2,0.952258700001039,1.0409302999996726,0,0.5956895999988774,0.7298553999989963,0,1.3144152000004397,1.4308860000001005,,,69.0,48.0,85311,60.0,
152,152,45,0,15,15,2,,,,,,,,,,,session,847.3199943,162.0,2.0,72.0,0.01961572724417495,5,1.7156864999997197,1.8302172000003338,0,1.5467574000012974,1.7795082000011462,0,0.8458891999998741,0.9958951999997225,,,54.0,63.0,85311,60.0,
-152,-152,0,1,0,16,13,,,,,,,,,,,session,858.0400351999997,156.0,2.0,72.0,0.01961572724417495,2,1.1626008999992337,1.3407833999990544,0,0.7597610000011628,0.9294516000009025,0,1.079391499999474,1.2317960999989737,,,48.0,54.0,85311,60.0,
152,-152,-45,1,1,17,8,,,,,,,,,,,session,867.3361638000006,156.0,2.0,72.0,0.01961572724417495,4,0.8422365000005811,1.060010000001057,0,0.5957658000006631,0.8139410000003409,0,0.3281576999997924,0.47830289999910747,,,60.0,66.0,85311,60.0,
152,152,0,1,2,18,1,,,,,,,,,,,session,875.8529414000004,132.0,2.0,72.0,0.01961572724417495,2,1.5782742999999755,1.761144999998578,0,0.3771598000002996,0.5800075000006473,0,0.3198013999990508,0.4865852000002633,,,60.0,72.0,85311,60.0,
152,152,90,1,3,19,3,,,,,,,,,,,session,884.5298063000009,162.0,2.0,72.0,0.01961572724417495,2,0.9659114999994927,1.1325832000002265,0,0.8411664000013843,0.9748833000012382,0,0.5292415999992954,0.6958311999987927,,,69.0,72.0,85311,60.0,
152,152,90,1,3,19,3,,,materials/instructions\12_break.png,894.4836295000005,911.597767700001,0,16.912552399999186,17.112549699999363,0.018220500000097672,17.12065319999965,,,,,,,,,,,,,,,,,,,,85311,60.0,
-152,-152,90,1,4,20,15,,,,,,,,,,,session,911.6144858999996,162.0,2.0,72.0,0.01961572724417495,2,1.1336631000012858,1.2347042000001238,0,0.8453733000005741,0.9787685999999667,0,0.5296079999989161,0.6633773999983532,,,69.0,48.0,85311,60.0,
152,-152,90,1,5,21,11,,,,,,,,,,,session,920.6050520000008,138.0,2.0,72.0,0.01961572724417495,2,0.9955681999999797,1.1144717000006494,0,1.1290772000011202,1.2791164999998728,0,0.5591322999971453,0.7593865999988338,,,69.0,57.0,85311,60.0,
152,152,45,1,6,22,2,,,,,,,,,,,session,929.6041889000007,144.0,2.0,72.0,0.01961572724417495,2,0.98626030000014,1.137407300000632,0,0.5114357000020391,0.7109708999996656,0,0.3936861999973189,0.5605426999973133,,,69.0,60.0,85311,60.0,
-152,-152,-45,1,7,23,12,,,,,,,,,,,session,938.3872186000008,156.0,2.0,72.0,0.01961572724417495,2,0.8459430999973847,0.9627115999974194,0,0.6316853000025731,0.8147019000025466,0,1.7765305000029912,1.9091903000007733,,,60.0,54.0,85311,60.0,
152,-152,0,1,8,24,9,,,,,,,,,,,session,948.0246909999987,162.0,2.0,72.0,0.01961572724417495,2,0.9605527000021539,1.0982612000007066,0,0.410852299999533,0.6275002000002132,0,0.4055597999977181,0.5722430999994685,,,69.0,57.0,85311,60.0,
152,-152,45,1,9,25,10,,,,,,,,,,,session,956.9844376000001,174.0,2.0,72.0,0.01961572724417495,2,0.8529373999990639,0.9541137000014714,0,1.0790116999996826,1.19667969999864,0,0.9431050999992294,1.159958899999765,,,57.0,57.0,85311,60.0,
-152,152,0,1,10,26,5,,,,,,,,,,,session,966.5564124000011,132.0,2.0,72.0,0.01961572724417495,2,1.4284303999993426,1.5618701999992481,0,0.9551141999982065,1.1719466999966244,0,1.2135392999989563,1.4800687999995716,,,51.0,48.0,85311,60.0,
-152,152,-45,1,11,27,4,,,,,,,,,,,session,976.0880391999999,174.0,2.0,72.0,0.01961572724417495,2,0.9911197999972501,1.1411550999982865,0,0.433135700001003,0.6327793000018573,0,0.5089011000018218,0.6942061000008835,,,66.0,63.0,85311,60.0,
152,152,-45,1,12,28,0,,,,,,,,,,,session,985.0707131999989,126.0,2.0,72.0,0.01961572724417495,2,1.0467514999982086,1.1649948000012955,0,0.4568671000015456,0.6583382999997411,0,0.4975305000007211,0.7137584000010975,,,51.0,66.0,85311,60.0,
-152,152,45,1,13,29,6,,,,,,,,,,,session,993.0928719000003,174.0,2.0,72.0,0.01961572724417495,2,1.3903890999972646,1.5732900999973936,1,1.6979917000026035,1.8422946999999112,1,1.044794899997214,1.194954399998096,,,72.0,60.0,85311,60.0,
-152,-152,45,1,14,30,14,,,,,,,,,,,session,1004.8712501000009,150.0,2.0,72.0,0.01961572724417495,2,1.1804560999989917,1.312925300000643,0,0.879713599999377,1.0299272000011115,0,1.4273790000006557,1.5941106999998738,,,51.0,72.0,85311,60.0,
-152,152,90,1,15,31,7,,,,,,,,,,,session,1014.8098809000003,144.0,2.0,72.0,0.01961572724417495,2,1.0415484000004653,1.1913306999995257,0,0.430255399998714,0.6277534000000742,0,0.6145156999991741,0.8146008999974583,,,51.0,51.0,85311,60.0,
152,152,90,2,0,32,3,,,,,,,,,,,session,1023.4675281999989,156.0,2.0,72.0,0.01961572724417495,5,1.160900099999708,1.3444144999994023,6,2.0623225000017555,2.2122431000025244,1,1.014191700000083,1.1619162000024517,,,63.0,72.0,85311,60.0,
-152,-152,90,2,1,33,15,,,,,,,,,,,session,1034.489961700001,150.0,2.0,72.0,0.01961572724417495,2,1.0749775000003865,1.2400735000010172,0,0.3913022999986424,0.5414185999979964,0,0.5377232999999251,0.718831100002717,,,63.0,54.0,85311,60.0,
-152,152,90,2,2,34,7,,,,,,,,,,,session,1042.902453499999,126.0,2.0,72.0,0.01961572724417495,2,0.9749871999993047,1.0602357999996457,0,0.3287401999987196,0.49548309999954654,0,0.5475602000005892,0.7150164000013319,,,66.0,51.0,85311,60.0,
152,-152,90,2,3,35,11,,,,,,,,,,,session,1050.6901246000016,162.0,2.0,72.0,0.01961572724417495,4,0.865461100001994,1.0983577000006335,6,1.029072700002871,1.1774955000000773,1,0.9883028000003833,1.1574813000006543,,,57.0,51.0,85311,60.0,
152,152,0,2,4,36,1,,,,,,,,,,,session,1060.0645345000012,150.0,2.0,72.0,0.01961572724417495,2,1.0296875000021828,1.1464298000028066,0,0.6447809000019333,0.811637900002097,0,0.42698449999807053,0.6758263999981864,,,72.0,66.0,85311,60.0,
152,152,45,2,5,37,2,,,,,,,,,,,session,1069.667709100002,150.0,2.0,72.0,0.01961572724417495,3,1.242131300001347,1.4923364000023867,0,1.9663316999976814,2.1006376999976055,0,0.44485749999876134,0.5950592000008328,,,54.0,51.0,85311,60.0,
-152,152,0,2,6,38,5,,,,,,,,,,,session,1079.5581263999993,144.0,2.0,72.0,0.01961572724417495,2,1.366181699999288,1.4882470999982615,0,0.2907229999982519,0.4908971000004385,0,0.5819131999996898,0.7816602000020794,,,69.0,60.0,85311,60.0,
-152,-152,-45,2,7,39,12,,,,,,,,,,,session,1088.3215658000008,132.0,2.0,72.0,0.01961572724417495,2,0.9266119000021718,1.0606217000022298,0,0.3127819000001182,0.4627787999997963,0,0.46162660000118194,0.6106460000009974,,,57.0,48.0,85311,60.0,
-152,-152,-45,2,7,39,12,,,materials/instructions\12_break.png,1095.879852099999,1109.0825073999986,0,12.98126240000056,13.200321200001781,0.025640200001362246,13.207274200001848,,,,,,,,,,,,,,,,,,,,85311,60.0,
152,-152,0,2,8,40,9,,,,,,,,,,,session,1109.0964018000013,180.0,2.0,72.0,0.01961572724417495,2,1.0192909999968833,1.1176010999988648,0,0.4582262999974773,0.5751172999989649,0,0.47689429999809363,0.6270180999999866,,,60.0,57.0,85311,60.0,
-152,-152,45,2,9,41,14,,,,,,,,,,,session,1117.8375391000009,150.0,2.0,72.0,0.01961572724417495,3,0.8782279000006383,1.044874200000777,0,0.5273347000002104,0.7095833999992465,0,0.48580869999932474,0.6527247000012721,,,60.0,48.0,85311,60.0,
152,-152,45,2,10,42,10,,,,,,,,,,,session,1125.9948648999998,174.0,2.0,72.0,0.01961572724417495,2,1.6813216999980796,1.8001006999984384,0,0.5059505999997782,0.6728403999986767,0,0.7133444999999483,0.8949790000006033,,,57.0,60.0,85311,60.0,
-152,152,-45,2,11,43,4,,,,,,,,,,,session,1136.370363500002,168.0,2.0,72.0,0.01961572724417495,2,1.5264017000008607,1.6588904999989609,0,0.43573169999945094,0.6359262000005401,0,0.5268943999981275,0.6941473000006226,,,69.0,69.0,85311,60.0,
-152,-152,0,2,12,44,13,,,,,,,,,,,session,1145.910672099999,162.0,2.0,72.0,0.01961572724417495,2,0.8592838999975356,1.009565799999109,0,0.6093350000010105,0.809677000001102,0,1.1608392000016465,1.5105792000031215,,,66.0,54.0,85311,60.0,
152,-152,-45,2,13,45,8,,,,,,,,,,,session,1155.4889906999997,162.0,2.0,72.0,0.01961572724417495,2,0.9500435999980255,1.1335221999979694,0,0.46225109999795677,0.6624142999971809,0,0.6479822999972384,0.898613800000021,,,57.0,69.0,85311,60.0,
152,152,-45,2,14,46,0,,,,,,,,,,,session,1164.4405302000014,156.0,2.0,72.0,0.01961572724417495,2,0.7818207999989681,0.9814120999981242,0,0.3150086999994528,0.48186139999961597,0,1.2597282999995514,1.4551295999990543,,,63.0,72.0,85311,60.0,
-152,152,45,2,15,47,6,,,,,,,,,,,session,1173.6680553000006,138.0,2.0,72.0,0.01961572724417495,2,0.8122120000007271,0.912256100000377,0,0.5200070999999298,0.635901500001637,0,0.4315945999987889,0.5650631999997131,,,69.0,60.0,85311,60.0,
152,-152,-45,3,0,48,8,,,,,,,,,,,session,1181.8375462000004,156.0,2.0,72.0,0.01961572724417495,2,1.030800900000031,1.1642689000000246,0,0.3302122999994026,0.5139197999997123,0,0.4520334999979241,0.6355109999967681,,,72.0,60.0,85311,60.0,
152,152,45,3,1,49,2,,,,,,,,,,,session,1190.3960561999993,126.0,2.0,72.0,0.01961572724417495,2,0.8391062000009697,0.9726364999987709,0,0.28873879999810015,0.49316779999935534,0,0.46270430000004126,0.6432077999998,,,60.0,57.0,85311,60.0,
-152,-152,0,3,2,50,13,,,,,,,,,,,session,1198.0364535000008,126.0,2.0,72.0,0.01961572724417495,3,0.8793077000009362,1.0781353000020317,0,0.5313175999981468,0.6648029999996652,0,0.5467833000002429,0.7307963999992353,,,51.0,48.0,85311,60.0,
152,-152,45,3,3,51,10,,,,,,,,,,,session,1205.7227313000003,132.0,2.0,72.0,0.01961572724417495,4,1.1350727999997616,1.3687393999971391,0,0.5946803999977419,0.8290769999985059,0,0.6169048999981896,0.8673063999995065,,,72.0,51.0,85311,60.0,
152,-152,90,3,4,52,11,,,,,,,,,,,session,1214.4786894999997,156.0,2.0,72.0,0.01961572724417495,4,1.096704999999929,1.3441429999984393,0,0.4808539000005112,0.7313067000031879,0,0.3941733999999997,0.5625700000018696,,,63.0,63.0,85311,60.0,
-152,-152,-45,3,5,53,12,,,,,,,,,,,session,1223.905949,156.0,2.0,72.0,0.01961572724417495,2,1.6945659999983036,1.8449872999990475,0,0.36735699999917415,0.6162180999999691,0,0.480628200002684,0.6973066000027757,,,54.0,72.0,85311,60.0,
-152,-152,45,3,6,54,14,,,,,,,,,,,session,1233.2276626999992,138.0,2.0,72.0,0.01961572724417495,2,1.1976222000012058,1.366872800001147,0,0.378943600000639,0.5788099000019429,0,0.7070710999978473,0.9219019999982265,,,66.0,57.0,85311,60.0,
152,-152,0,3,7,55,9,,,,,,,,,,,session,1241.9033039999995,168.0,2.0,72.0,0.01961572724417495,2,1.1673454999981914,1.2992916000002879,0,0.8606121000011626,0.9103649000026053,0,0.5431934999978694,0.6933030999971379,,,69.0,57.0,85311,60.0,
-152,-152,90,3,8,56,15,,,,,,,,,,,session,1251.171964699999,138.0,2.0,72.0,0.01961572724417495,2,0.9505524000014702,1.0491787000028125,0,0.327998500000831,0.4782688000013877,0,0.5321379999986675,0.6793018999997003,,,69.0,54.0,85311,60.0,
-152,152,45,3,9,57,6,,,,,,,,,,,session,1259.1795272000018,180.0,2.0,72.0,0.01961572724417495,2,1.0436796000030881,1.1270209000031173,0,0.3902208999970753,0.5556595999987621,0,0.564883999999438,0.7480711999996856,,,63.0,69.0,85311,60.0,
152,152,90,3,10,58,3,,,,,,,,,,,session,1268.9394229999998,174.0,2.0,72.0,0.01961572724417495,2,0.9844665000018722,1.134371200001624,0,0.34562240000013844,0.47784690000116825,0,2.3973742999987735,2.613559699999314,,,51.0,69.0,85311,60.0,
-152,152,-45,3,11,59,4,,,,,,,,,,,session,1279.5108284999988,156.0,2.0,72.0,0.01961572724417495,2,0.7884196000013617,0.9388391000029515,0,0.42832999999882304,0.5954008999979123,0,0.32250550000026124,0.6243732000002638,,,69.0,57.0,85311,60.0,
-152,152,-45,3,11,59,4,,,materials/instructions\12_break.png,1288.382854399999,1317.9048237999996,0,29.353125500001624,29.51995700000043,0.022437799998442642,29.527684599997883,,,,,,,,,,,,,,,,,,,,85311,60.0,
-152,152,0,3,12,60,5,,,,,,,,,,,session,1317.9205360999986,174.0,2.0,72.0,0.01961572724417495,2,1.1578259999987495,1.2582952999982808,0,0.3241465999999491,0.490989099998842,0,0.4312032999987423,0.5819935999970767,,,72.0,57.0,85311,60.0,
-152,152,90,3,13,61,7,,,,,,,,,,,session,1326.7511286000008,138.0,2.0,72.0,0.01961572724417495,2,0.9240759999993315,1.0241184000005887,0,0.3427680999993754,0.49395519999961834,0,0.4092329000013706,0.5592990000004647,,,63.0,57.0,85311,60.0,
152,152,-45,3,14,62,0,,,,,,,,,,,session,1335.1398424,174.0,2.0,72.0,0.01961572724417495,2,0.9252093000031891,1.0083636000017577,0,0.32400570000027074,0.5075352000021667,0,0.3087952999994741,0.44218700000055833,,,69.0,66.0,85311,60.0,
152,152,0,3,15,63,1,,,,,,,,,,,session,1343.7096491000011,138.0,2.0,72.0,0.01961572724417495,2,0.9282465999967826,1.0950216999990516,0,0.48514799999975367,0.5903651000007812,0,0.4499814000009792,0.5342314000008628,,,60.0,66.0,85311,60.0,
152,-152,45,4,0,64,10,,,,,,,,,,,session,1351.8026599000004,156.0,2.0,72.0,0.01961572724417495,2,0.9037386999989394,1.0870687999995425,0,0.316943200003152,0.48384660000010626,0,0.44473740000103135,0.6448687999982212,,,63.0,72.0,85311,60.0,
-152,-152,45,4,1,65,14,,,,,,,,,,,session,1360.3224762999998,180.0,2.0,72.0,0.01961572724417495,2,1.0345382999985304,1.1848050000007788,0,0.4794488999978057,0.6960871999981464,0,0.9157124999983353,1.096422899998288,,,51.0,63.0,85311,60.0,
152,152,45,4,2,66,2,,,,,,,,,,,session,1369.6486579000011,162.0,2.0,72.0,0.01961572724417495,2,0.9743845999983023,1.1104947999992874,0,0.3269151000022248,0.5273673000010604,0,0.4462375000002794,0.6975223000008555,,,63.0,54.0,85311,60.0,
152,-152,90,4,3,67,11,,,,,,,,,,,session,1378.7067205999992,138.0,2.0,72.0,0.01961572724417495,2,0.8293686000033631,0.9629597000021022,0,0.37737510000079055,0.5267755000022589,0,0.545422299997881,0.7443179000001692,,,66.0,57.0,85311,60.0,
152,-152,0,4,4,68,9,,,,,,,,,,,session,1386.7423153000018,144.0,2.0,72.0,0.01961572724417495,2,0.8964410999979009,1.0465242999998736,0,0.46087229999830015,0.5885968999973556,0,0.33716789999743924,0.553483600000618,,,66.0,57.0,85311,60.0,
-152,-152,-45,4,5,69,12,,,,,,,,,,,session,1394.8699651999996,168.0,2.0,72.0,0.01961572724417495,2,1.0330959000020812,1.1999756000004709,0,0.4558945999997377,0.6396141999975953,0,0.37777809999897727,0.5945749999991676,,,51.0,66.0,85311,60.0,
152,152,0,4,6,70,1,,,,,,,,,,,session,1403.5721398999995,168.0,2.0,72.0,0.01961572724417495,2,0.805236899999727,0.9552298999988125,0,0.4454504999994242,0.5619377999973949,0,0.47632480000174837,0.6440957000013441,,,48.0,60.0,85311,60.0,
152,-152,-45,4,7,71,8,,,,,,,,,,,session,1411.7804934000014,138.0,2.0,72.0,0.01961572724417495,2,0.9233945000014501,1.0952151000019512,0,0.39417669999966165,0.5875765999990108,0,0.34346929999810527,0.5117408000005526,,,54.0,72.0,85311,60.0,
152,152,-45,4,8,72,0,,,,,,,,,,,session,1420.0077095000015,150.0,2.0,72.0,0.01961572724417495,2,0.8956126000011864,1.0624432000004163,0,0.47956469999917317,0.6301136999973096,0,0.5978117000013299,0.747969899999589,,,57.0,72.0,85311,60.0,
-152,152,45,4,9,73,6,,,,,,,,,,,session,1428.5589709000014,168.0,2.0,72.0,0.01961572724417495,2,0.9631982999999309,1.1304692000012437,0,0.2424434000022302,0.4406511000015598,0,0.27832580000176677,0.46119289999842294,,,66.0,57.0,85311,60.0,
-152,152,90,4,10,74,7,,,,,,,,,,,session,1436.891125000002,180.0,2.0,72.0,0.01961572724417495,2,0.7442375999999058,0.8606309999995574,0,0.34375700000236975,0.4956951000021945,0,0.6968367000008584,0.8635704000007536,,,48.0,63.0,85311,60.0,
-152,152,0,4,11,75,5,,,,,,,,,,,session,1445.976017500001,162.0,2.0,72.0,0.01961572724417495,2,0.778159900000901,0.8946477999998024,0,0.8622240999975475,1.07923259999734,0,1.676960799999506,1.876982699999644,,,48.0,57.0,85311,60.0,
-152,152,-45,4,12,76,4,,,,,,,,,,,session,1455.7295980000017,156.0,2.0,72.0,0.01961572724417495,2,1.088970499997231,1.2436015999992378,0,0.4909320000006119,0.5777331999997841,0,0.5427651999998488,0.7260929000003671,,,60.0,69.0,85311,60.0,
-152,-152,0,4,13,77,13,,,,,,,,,,,session,1464.6888306,144.0,2.0,72.0,0.01961572724417495,2,1.363148899999942,1.5820984000019962,0,0.4108300000007148,0.6107755999983056,0,0.3971127000004344,0.630949900001724,,,54.0,60.0,85311,60.0,
-152,-152,90,4,14,78,15,,,,,,,,,,,session,1473.259913599999,144.0,2.0,72.0,0.01961572724417495,2,0.9297146999997494,1.1298343999987992,0,0.5569548999992548,0.7412532999987889,0,0.5889324999989185,0.7997340999972948,,,51.0,63.0,85311,60.0,
152,152,90,4,15,79,3,,,,,,,,,,,session,1481.6859350000013,168.0,2.0,72.0,0.01961572724417495,2,0.8405706000012287,0.9561830000020564,0,0.44390760000169394,0.51184160000048,0,0.44203270000070916,0.5922628000007535,,,57.0,51.0,85311,60.0,
152,152,90,4,15,79,3,,,materials/instructions\12_break.png,1490.2688345999995,1542.8772912999993,0,52.43877580000117,52.605632000002515,0.021435099999507656,52.61335400000098,,,,,,,,,,,,,,,,,,,,85311,60.0,
152,152,90,5,0,80,3,,,,,,,,,,,session,1542.8922129999992,132.0,2.0,72.0,0.01961572724417495,2,1.1292568999997457,1.4545982999989064,0,0.2029091000003973,0.38196070000049076,0,0.8124019999995653,1.0287074000007124,,,72.0,72.0,85311,60.0,
-152,-152,45,5,1,81,14,,,,,,,,,,,session,1551.858673499999,150.0,2.0,72.0,0.01961572724417495,2,1.094757100003335,1.2780998000016552,0,0.38090050000027986,0.5144672999995237,0,0.34393350000027567,0.46071289999963483,,,48.0,48.0,85311,60.0,
-152,152,-45,5,2,82,4,,,,,,,,,,,session,1559.6597398999984,174.0,2.0,72.0,0.01961572724417495,3,1.7634945999998308,2.029689300001337,0,0.3986067000005278,0.5812719999994442,0,0.586550799998804,0.7938491999993857,,,66.0,72.0,85311,60.0,
-152,-152,-45,5,3,83,12,,,,,,,,,,,session,1569.7924012000003,162.0,2.0,72.0,0.01961572724417495,2,1.741513799999666,1.9756533999970998,0,0.6552088999997068,0.805358099998557,0,0.9329539999998815,1.118772900001204,,,69.0,51.0,85311,60.0,
152,-152,0,5,4,84,9,,,,,,,,,,,session,1580.3458967000006,144.0,2.0,72.0,0.01961572724417495,4,0.5162425999988045,0.8345489999992424,0,0.5268544999998994,0.7092362999974284,0,0.2967261999983748,0.5634157999993477,,,69.0,69.0,85311,60.0,
152,-152,-45,5,5,85,8,,,,,,,,,,,session,1588.6142389000015,150.0,2.0,72.0,0.01961572724417495,4,0.6556412999998429,0.9223402999996324,7,1.4925027000026603,1.689938900002744,1,1.227991399999155,1.4139338999993925,,,51.0,54.0,85311,60.0,
152,-152,45,5,6,86,10,,,,,,,,,,,session,1598.5437036000003,162.0,2.0,72.0,0.01961572724417495,2,1.4814998000001651,1.7149925000012445,0,0.3128251000016462,0.44665789999999106,0,0.5627161000011256,0.7624246999985189,,,60.0,72.0,85311,60.0,
152,152,45,5,7,87,2,,,,,,,,,,,session,1607.8313421999992,180.0,2.0,72.0,0.01961572724417495,2,1.148551199999929,1.2634068000006664,0,0.5234949999976379,0.651578499997413,0,0.541658499998448,0.7221881000004942,,,60.0,63.0,85311,60.0,
152,152,-45,5,8,88,0,,,,,,,,,,,session,1616.9905120000003,174.0,2.0,72.0,0.01961572724417495,2,0.874547799998254,1.0894381999969482,0,0.430086600001232,0.5805083000013838,0,0.4484136999999464,0.6477266000001691,,,69.0,54.0,85311,60.0,
-152,152,0,5,9,89,5,,,,,,,,,,,session,1625.7258409999995,126.0,2.0,72.0,0.01961572724417495,2,1.0142194000000018,1.247762099999818,0,0.3940461999991385,0.5610068999994837,0,0.5937274000025354,0.7775370000017574,,,51.0,51.0,85311,60.0,
-152,-152,90,5,10,90,15,,,,,,,,,,,session,1633.5655571999996,144.0,2.0,72.0,0.01961572724417495,3,1.091492899999139,1.2412707000003138,6,1.1449239000030502,1.32792910000353,1,0.9772456999999122,1.1494136999972397,,,48.0,57.0,85311,60.0,
-152,152,45,5,11,91,6,,,,,,,,,,,session,1643.4626682999988,162.0,2.0,72.0,0.01961572724417495,2,1.0603050000026997,1.2594123000017134,0,0.6148051000018313,0.831624100002955,0,0.3580147000029683,0.5410077000015008,,,48.0,69.0,85311,60.0,
152,-152,90,5,12,92,11,,,,,,,,,,,session,1652.213705000002,174.0,2.0,72.0,0.01961572724417495,2,0.7625402999983635,0.9304892000000109,0,0.30581850000089617,0.4779138000012608,0,0.7273941000021296,0.9593494000000646,,,57.0,57.0,85311,60.0,
-152,-152,0,5,13,93,13,,,,,,,,,,,session,1660.844170299999,150.0,2.0,72.0,0.01961572724417495,3,0.874500400001125,1.0742509000010614,0,1.3012627999996766,1.4844209999973828,1,0.9645258000018657,1.1645091000027605,,,72.0,60.0,85311,60.0,
-152,152,90,5,14,94,7,,,,,,,,,,,session,1670.725879900001,150.0,2.0,72.0,0.01961572724417495,2,1.112401400001545,1.3616891000019677,0,0.5807253000020864,0.8320659999990312,0,0.7266016000030504,0.8595499000002746,,,51.0,48.0,85311,60.0,
152,152,0,5,15,95,1,,,,,,,,,,,session,1679.382952,144.0,2.0,72.0,0.01961572724417495,5,1.1007822999999917,1.400984799998696,6,1.760690800001612,1.9108240000023216,1,0.9794126999986474,1.146606199999951,,,66.0,63.0,85311,60.0,
-152,152,-45,6,0,96,4,,,,,,,,,,,session,1690.5761002,162.0,2.0,72.0,0.01961572724417495,2,1.0004162000004726,1.200112500002433,0,0.5329870999994455,0.7003843999991659,0,0.7160014000000956,0.8977013000003353,,,54.0,51.0,85311,60.0,
152,-152,-45,6,1,97,8,,,,,,,,,,,session,1699.2645352,180.0,2.0,72.0,0.01961572724417495,2,1.124858099999983,1.541986000000179,0,0.2969986999996763,0.4471157999978459,0,0.39476079999803915,0.5776483999979973,,,51.0,69.0,85311,60.0,
-152,152,90,6,2,98,7,,,,,,,,,,,session,1708.7743147,132.0,2.0,72.0,0.01961572724417495,2,0.8123314999975264,0.9439294000003429,0,0.44285630000013043,0.5934841000016604,0,0.6013772999976936,0.733547699997871,,,60.0,48.0,85311,60.0,
-152,-152,45,6,3,99,14,,,,,,,,,,,session,1716.5120496000018,174.0,2.0,72.0,0.01961572724417495,2,0.847703299998102,1.0310792999989644,0,0.5257554999989225,0.6429588999999396,0,0.7057669000023452,0.8609305000027234,,,57.0,66.0,85311,60.0,
-152,-152,45,6,3,99,14,,,materials/instructions\12_break.png,1725.475394600002,1754.8892455999994,0,29.261847199999465,29.412019399998826,0.010675100002117688,29.419816800000262,,,,,,,,,,,,,,,,,,,,85311,60.0,
-152,152,45,6,4,100,6,,,,,,,,,,,session,1754.9056474999998,150.0,2.0,72.0,0.01961572724417495,5,1.0899055000008957,1.2726901000023645,0,0.6152895000013814,0.78132579999874,0,0.3770288999985496,0.5132847999993828,,,63.0,57.0,85311,60.0,
152,152,0,6,5,101,1,,,,,,,,,,,session,1763.4321248000015,168.0,2.0,72.0,0.01961572724417495,2,0.9514845000012428,1.1016730000010284,0,0.30660229999921285,0.4568885999979102,0,0.5627348999987589,0.7127058000005491,,,72.0,48.0,85311,60.0,
152,-152,90,6,6,102,11,,,,,,,,,,,session,1771.9796772000009,168.0,2.0,72.0,0.01961572724417495,2,0.9953679999998712,1.1464371000001847,0,0.3604236999999557,0.5276754999977129,0,0.6597080999999889,0.8097627999995893,,,69.0,57.0,85311,60.0,
-152,152,0,6,7,103,5,,,,,,,,,,,session,1780.8267941999984,180.0,2.0,72.0,0.01961572724417495,2,0.9301945999977761,1.065430299997388,0,0.3609790000009525,0.511093000000983,0,0.44351240000105463,0.5614284000002954,,,66.0,60.0,85311,60.0,
152,-152,0,6,8,104,9,,,,,,,,,,,session,1789.5353146000016,132.0,2.0,72.0,0.01961572724417495,4,1.1382340999989538,1.2905317000004288,0,0.7142230999997992,0.8495411000003514,1,0.7091454999972484,0.9405243999972299,,,69.0,57.0,85311,60.0,
152,152,45,6,9,105,2,,,,,,,,,,,session,1799.175349699999,144.0,2.0,72.0,0.01961572724417495,2,1.1641048999990744,1.2642065999971237,0,0.3148477000031562,0.4473850000031234,0,0.29406269999890355,0.42753559999982826,,,66.0,69.0,85311,60.0,
-152,-152,90,6,10,106,15,,,,,,,,,,,session,1807.4146757999988,132.0,2.0,72.0,0.01961572724417495,4,0.8653073999994376,1.0325865999984671,0,1.138025899999775,1.3096316999981354,0,0.49364959999729763,0.6266794000002847,,,66.0,54.0,85311,60.0,
-152,-152,-45,6,11,107,12,,,,,,,,,,,session,1816.0444625000018,180.0,2.0,72.0,0.01961572724417495,2,0.8903110999999626,1.0905249999996158,0,0.3967062000010628,0.5466164999998,0,0.5305253000005905,0.7299732999999833,,,48.0,54.0,85311,60.0,
-152,-152,0,6,12,108,13,,,,,,,,,,,session,1824.5775888999997,156.0,2.0,72.0,0.01961572724417495,2,0.9673438999998325,1.115409099998942,0,0.42676530000244384,0.5767928000022948,0,1.1933443999987503,1.3269703000005393,,,63.0,66.0,85311,60.0,
152,-152,45,6,13,109,10,,,,,,,,,,,session,1833.801475700002,168.0,2.0,72.0,0.01961572724417495,4,0.8244166000004043,1.02553479999915,7,1.1658401999993657,1.3971060999974725,1,1.1414256999996724,1.32488750000266,,,60.0,66.0,85311,60.0,
152,152,90,6,14,110,3,,,,,,,,,,,session,1844.642659199999,150.0,2.0,72.0,0.01961572724417495,2,1.065249599996605,1.2156256999987818,0,0.37779459999728715,0.5616144999985409,0,0.5993440999991435,0.7487804999982473,,,54.0,69.0,85311,60.0,
152,152,-45,6,15,111,0,,,,,,,,,,,session,1853.1663307999988,174.0,2.0,72.0,0.01961572724417495,2,0.9575886000020546,1.107833900001424,0,0.3260530999978073,0.45800949999829754,0,0.5249327999990783,0.641727099999116,,,72.0,57.0,85311,60.0,
152,-152,0,7,0,112,9,,,,,,,,,,,session,1862.0923207000014,150.0,2.0,72.0,0.01961572724417495,2,0.99442099999942,1.1613337000017054,0,0.3260454999981448,0.47850090000065393,0,1.9467961000009382,2.1137044000024616,,,66.0,51.0,85311,60.0,
-152,-152,90,7,1,113,15,,,,,,,,,,,session,1871.7461838000017,144.0,2.0,72.0,0.01961572724417495,3,0.9571428999988711,1.1393967000003613,6,0.9963207000000693,1.1121486999982153,0,0.5055037000020093,0.6861113000013574,,,60.0,48.0,85311,60.0,
-152,-152,0,7,2,114,13,,,,,,,,,,,session,1880.3589513000006,180.0,2.0,72.0,0.01961572724417495,2,1.4129092000002856,1.5479979000010644,0,0.5948346000004676,0.7460842000000412,0,0.6477770999990753,0.8646841000008862,,,54.0,54.0,85311,60.0,
-152,152,0,7,3,115,5,,,,,,,,,,,session,1889.9776640000018,162.0,2.0,72.0,0.01961572724417495,2,0.9968483000011474,1.0969819000019925,0,0.3453220000010333,0.4644953999995778,0,0.3453392999981588,0.4099008999983198,,,48.0,51.0,85311,60.0,
152,-152,45,7,4,116,10,,,,,,,,,,,session,1897.7509476999985,174.0,2.0,72.0,0.01961572724417495,2,0.915442699999403,1.0321522999984154,0,0.4481056999975408,0.5982447999995202,0,0.3651936999995087,0.5151474999984202,,,54.0,60.0,85311,60.0,
152,-152,-45,7,5,117,8,,,,,,,,,,,session,1906.5752025000002,168.0,2.0,72.0,0.01961572724417495,2,0.9099530999992567,1.0264343999988341,0,0.38055350000286126,0.47969600000214996,0,0.6490588999986358,0.7990027999985614,,,60.0,51.0,85311,60.0,
-152,152,45,7,6,118,6,,,,,,,,,,,session,1914.9809511999993,174.0,2.0,72.0,0.01961572724417495,2,1.0965620999995735,1.2135046000003058,0,1.6932944000000134,1.868539700000838,0,0.6459646000002977,0.7961488000000827,,,57.0,66.0,85311,60.0,
-152,-152,45,7,7,119,14,,,,,,,,,,,session,1925.2622460999992,144.0,2.0,72.0,0.01961572724417495,2,0.8925368000018352,1.0614535000022443,0,0.5227580999999191,0.689473900001758,0,0.44327440000051865,0.6267300000035902,,,69.0,66.0,85311,60.0,
-152,-152,45,7,7,119,14,,,materials/instructions\12_break.png,1933.8036322000007,1991.0084830999986,0,56.951939700000366,57.20232620000024,0.02449999999953434,57.209703999997146,,,,,,,,,,,,,,,,,,,,85311,60.0,
-152,152,90,7,8,120,7,,,,,,,,,,,session,1991.0239336999985,150.0,2.0,72.0,0.01961572724417495,5,1.125141500000609,1.2251569000000018,0,0.3703562000009697,0.536981499997637,0,0.37949810000282014,0.5627827000025718,,,63.0,69.0,85311,60.0,
152,152,45,7,9,121,2,,,,,,,,,,,session,1999.6781321999988,168.0,2.0,72.0,0.01961572724417495,2,1.066001300001517,1.1661859999985609,0,0.2315761999998358,0.4150210000007064,0,0.46701239999674726,0.6027816999994684,,,63.0,54.0,85311,60.0,
152,152,-45,7,10,122,0,,,,,,,,,,,session,2008.0398733000002,150.0,2.0,72.0,0.01961572724417495,2,0.8296149999987392,0.8960255999991205,0,0.3540818000001309,0.4409333000003244,0,0.41126599999915925,0.5338897000001452,,,69.0,48.0,85311,60.0,
-152,-152,-45,7,11,123,12,,,,,,,,,,,session,2015.9839409000015,162.0,2.0,72.0,0.01961572724417495,2,1.1348775000005844,1.2350554000004195,0,0.6777934999990975,0.8466439999974682,0,0.48380009999891627,0.6504437000003236,,,69.0,51.0,85311,60.0,
152,152,0,7,12,124,1,,,,,,,,,,,session,2024.8804517999997,174.0,2.0,72.0,0.01961572724417495,3,0.7820442999982333,0.9793863999984751,0,0.603383900001063,0.7866491000022506,0,0.6395740000007208,0.8499200000005658,,,60.0,51.0,85311,60.0,
-152,152,-45,7,13,125,4,,,,,,,,,,,session,2033.689895200001,144.0,2.0,72.0,0.01961572724417495,2,0.9720959000005678,1.1222209000006842,1,1.1272730999990017,1.2608491999999387,0,0.3981149999999616,0.5981787999990047,,,69.0,57.0,85311,60.0,
152,152,90,7,14,126,3,,,,,,,,,,,session,2043.1967487000002,180.0,2.0,72.0,0.01961572724417495,2,0.9646167999999307,1.1483487999976205,0,0.32677850000254693,0.5435547000015504,0,4.375946600001043,4.668700999998691,,,48.0,63.0,85311,60.0,
152,-152,90,7,15,127,11,,,,,,,,,,,session,2055.857714599999,168.0,2.0,72.0,0.01961572724417495,4,1.5084652000005008,1.7079892000001564,6,1.025901499997417,1.1925443000000087,1,1.0823048999991443,1.2158157999983814,,,72.0,48.0,85311,60.0,
-152,-152,90,8,0,128,15,,,,,,,,,,,session,2066.7447071999995,168.0,2.0,72.0,0.01961572724417495,3,1.0904737999990175,1.2914553999980853,0,0.2799756999993406,0.46345300000029965,0,2.264276300000347,2.4653914000009536,,,72.0,54.0,85311,60.0,
152,152,90,8,1,129,3,,,,,,,,,,,session,2077.320388,150.0,2.0,72.0,0.01961572724417495,2,1.0684168000007048,1.1682571999990614,0,0.058994499999244,0.24122739999802434,0,0.24324839999826509,0.49214029999711784,,,63.0,66.0,85311,60.0,
-152,152,45,8,2,130,6,,,,,,,,,,,session,2085.9816218999986,156.0,2.0,72.0,0.01961572724417495,2,1.2455367000002298,1.42832140000246,7,1.014549999999872,1.214431999997032,1,0.8593352999996569,1.0112182000011671,,,66.0,72.0,85311,60.0,
152,-152,45,8,3,131,10,,,,,,,,,,,session,2096.002474699999,162.0,2.0,72.0,0.01961572724417495,2,1.3258593999998993,1.459032799997658,0,0.32557290000113426,0.4379257000000507,0,0.509129899997788,0.6762235999995028,,,69.0,51.0,85311,60.0,
-152,152,0,8,4,132,5,,,,,,,,,,,session,2104.7782423999997,168.0,2.0,72.0,0.01961572724417495,2,1.2450578000025416,1.3784863000000769,0,0.4814507999981288,0.6460157000001345,0,0.3638735999993514,0.4956329000015103,,,60.0,66.0,85311,60.0,
152,-152,0,8,5,133,9,,,,,,,,,,,session,2113.663985700001,132.0,2.0,72.0,0.01961572724417495,2,0.8959504000013112,0.9960036000011314,0,0.2446458000013081,0.3460930000001099,0,0.2645050999999512,0.41464669999913895,,,63.0,69.0,85311,60.0,
-152,152,90,8,6,134,7,,,,,,,,,,,session,2121.2541377999987,150.0,2.0,72.0,0.01961572724417495,2,0.9212535000006028,1.0900899000007485,0,0.34392680000019027,0.4605590999999549,0,2.536022200001753,2.7697460999988834,,,72.0,72.0,85311,60.0,
152,152,45,8,7,135,2,,,,,,,,,,,session,2132.6294688000016,180.0,2.0,72.0,0.01961572724417495,5,1.212204200000997,1.3297344999991765,7,1.1796436000004178,1.3792040000007546,1,0.3990330999986327,0.5991467999992892,,,72.0,66.0,85311,60.0,
-152,-152,-45,8,8,136,12,,,,,,,,,,,session,2142.6878853000017,162.0,2.0,72.0,0.01961572724417495,2,1.057372299997951,1.1667315999984567,0,0.6077283999984502,0.7921255000001111,1,1.028033200000209,1.195497599997907,,,54.0,63.0,85311,60.0,
-152,-152,45,8,9,137,14,,,,,,,,,,,session,2152.614495500002,180.0,2.0,72.0,0.01961572724417495,2,1.7632928999992146,1.9965196999983164,0,0.4423540999996476,0.6257818000012776,0,0.01075950000085868,0.2769962000020314,,,60.0,66.0,85311,60.0,
-152,152,-45,8,10,138,4,,,,,,,,,,,session,2162.067952199999,180.0,2.0,72.0,0.01961572724417495,2,0.7548310999991372,0.9351685000001453,1,1.1394123999998556,1.3196176000019477,1,0.5462277000005997,0.7292127000000619,,,66.0,51.0,85311,60.0,
-152,-152,0,8,11,139,13,,,,,,,,,,,session,2171.614347999999,126.0,2.0,72.0,0.01961572724417495,2,0.8425348000018857,1.0243606000003638,0,0.8088119999993069,1.00901199999862,0,1.36432749999949,1.5811420999998518,,,57.0,48.0,85311,60.0,
-152,-152,0,8,11,139,13,,,materials/instructions\12_break.png,2180.5742477999993,2203.7464494000014,0,22.936362300002656,23.170050900000206,0.025322800000139978,23.177621399998316,,,,,,,,,,,,,,,,,,,,85311,60.0,
152,152,-45,8,12,140,0,,,,,,,,,,,session,2203.761560499999,150.0,2.0,72.0,0.01961572724417495,2,1.0269797000000835,1.159647500000574,0,0.32326219999958994,0.4071989999974903,0,0.3084262000011222,0.48648680000042077,,,69.0,51.0,85311,60.0,
152,-152,-45,8,13,141,8,,,,,,,,,,,session,2211.759684299999,162.0,2.0,72.0,0.01961572724417495,4,1.444904999996652,1.6448643999974593,1,1.4651766999995743,1.6485752000007778,1,1.0633998999983305,1.26358739999705,,,51.0,51.0,85311,60.0,
152,-152,90,8,14,142,11,,,,,,,,,,,session,2222.413621399999,150.0,2.0,72.0,0.01961572724417495,2,0.9931552000016381,1.1099455000003218,0,0.29805839999971795,0.43123149999883026,0,0.9288291999982903,1.079204599998775,,,63.0,66.0,85311,60.0,
152,152,0,8,15,143,1,,,,,,,,,,,session,2231.136970399999,144.0,2.0,72.0,0.01961572724417495,5,1.0429799999983516,1.2406365999995614,0,0.5782379999982368,0.7282328999972378,1,0.6589252000012493,0.8251367000011669,,,66.0,60.0,85311,60.0,
-152,152,90,9,0,144,7,,,,,,,,,,,session,2240.4993465000007,126.0,2.0,72.0,0.01961572724417495,2,0.9500286000002234,1.082697100002406,0,0.459299900001497,0.645507400000497,0,0.4619778000014776,0.6955522000025667,,,51.0,60.0,85311,60.0,
-152,-152,-45,9,1,145,12,,,,,,,,,,,session,2248.3342276000003,132.0,2.0,72.0,0.01961572724417495,3,1.18275690000155,1.3664296000024478,1,1.1442062000023725,1.300290800001676,1,0.7439078000024892,0.8968138000018371,,,54.0,51.0,85311,60.0,
-152,-152,0,9,2,146,13,,,,,,,,,,,session,2257.3012075000006,180.0,2.0,72.0,0.01961572724417495,2,1.0220254000014393,1.1379010000018752,0,0.6286910000017087,0.7964356000011321,0,0.6624993000004906,0.8793288000015309,,,51.0,63.0,85311,60.0,
152,152,90,9,3,147,3,,,,,,,,,,,session,2266.4638689999992,126.0,2.0,72.0,0.01961572724417495,2,1.1839044000007561,1.3338389000018651,0,0.27819580000141286,0.4280389000014111,0,0.42853589999867836,0.6119777999992948,,,66.0,60.0,85311,60.0,
-152,-152,45,9,4,148,14,,,,,,,,,,,session,2274.4859504000015,144.0,2.0,72.0,0.01961572724417495,3,0.8874724000015703,1.0877591999997094,7,1.2403536999991047,1.506981900001847,1,1.059265800002322,1.19450880000295,,,57.0,60.0,85311,60.0,
152,152,0,9,5,149,1,,,,,,,,,,,session,2284.580240200001,168.0,2.0,72.0,0.01961572724417495,2,0.9473830000024464,1.1147157000013976,0,0.23128799999904004,0.4139744999993127,0,0.7959660999986227,1.0127528000011807,,,69.0,72.0,85311,60.0,
-152,152,0,9,6,150,5,,,,,,,,,,,session,2293.7178243000017,162.0,2.0,72.0,0.01961572724417495,2,0.8307673999988765,0.930905499997607,0,0.2753143999980239,0.38665999999648193,0,0.3246295999997528,0.4584322999980941,,,69.0,66.0,85311,60.0,
152,152,-45,9,7,151,0,,,,,,,,,,,session,2301.912070300001,138.0,2.0,72.0,0.01961572724417495,2,0.8459344000002602,0.9768455999983416,0,0.3619769000033557,0.42993200000273646,0,0.4118522999997367,0.5286297999991802,,,69.0,66.0,85311,60.0,
152,-152,-45,9,8,152,8,,,,,,,,,,,session,2309.8636146999997,180.0,2.0,72.0,0.01961572724417495,2,0.746889199999714,0.9304274999994959,0,0.2631803999975091,0.4118901999972877,0,0.7825335999987146,0.9826528999983566,,,69.0,57.0,85311,60.0,
152,-152,90,9,9,153,11,,,,,,,,,,,session,2318.7569651999984,156.0,2.0,72.0,0.01961572724417495,4,0.9959263999990071,1.1090416999977606,6,0.9612909999996191,1.0946064999989176,1,3.0591128999985813,3.2413715999973647,,,69.0,63.0,85311,60.0,
-152,152,45,9,10,154,6,,,,,,,,,,,session,2330.9830466999992,138.0,2.0,72.0,0.01961572724417495,2,0.8713581999982125,0.9711346000003687,0,0.42925499999910244,0.5792169999986072,0,0.37742740000248887,0.5775336000006064,,,54.0,54.0,85311,60.0,
-152,152,-45,9,11,155,4,,,,,,,,,,,session,2338.670955900001,162.0,2.0,72.0,0.01961572724417495,2,1.1664682000009634,1.2718353000018396,0,2.656212099998811,2.792401399998198,0,0.6752190999977756,0.9252712999987125,,,60.0,57.0,85311,60.0,
152,152,45,9,12,156,2,,,,,,,,,,,session,2349.764052900002,162.0,2.0,72.0,0.01961572724417495,2,0.8947827000010875,1.013619800000015,0,0.4484824000028311,0.5149472000011883,0,0.6119171999998798,0.7620275000008405,,,69.0,54.0,85311,60.0,
152,-152,45,9,13,157,10,,,,,,,,,,,session,2358.2505423000002,168.0,2.0,72.0,0.01961572724417495,4,1.2970838000001095,1.482753899999807,7,1.0841718000010587,1.3293761999993876,1,0.5286416000017198,0.6775921000007656,,,60.0,54.0,85311,60.0,
152,-152,0,9,14,158,9,,,,,,,,,,,session,2367.9156121999986,156.0,2.0,72.0,0.01961572724417495,4,0.9576293999998597,1.1077392000006512,0,1.3841993999994884,1.5489067000016803,1,0.9973247999987507,1.1140286000008928,,,54.0,69.0,85311,60.0,
-152,-152,90,9,15,159,15,,,,,,,,,,,session,2377.799519700002,138.0,2.0,72.0,0.01961572724417495,2,1.2464602000000014,1.398431100002199,0,0.26357950000237906,0.36213750000024447,0,0.2799699999995937,0.3956213999990723,,,60.0,60.0,85311,60.0,
-152,-152,90,9,15,159,15,,,materials/instructions\12_break.png,2385.7337966999985,2396.428536899999,0,10.473686599998473,10.692941599998449,0.022601799999392824,10.700773100001243,,,,,,,,,,,,,,,,,,,,85311,60.0,
152,152,45,10,0,160,2,,,,,,,,,,,session,2396.445253599999,180.0,2.0,72.0,0.01961572724417495,2,0.9422035999996297,1.0755465000002005,0,2.8989461999990453,3.1149705999996513,0,0.7141154999990249,1.0312269999994896,,,54.0,69.0,85311,60.0,
152,-152,-45,10,1,161,8,,,,,,,,,,,session,2408.1719556999997,174.0,2.0,72.0,0.01961572724417495,4,0.8402179000004253,1.0239767000020947,1,0.7808426999981748,0.9475494999969669,1,1.1036192999999912,1.2879185999991023,,,54.0,66.0,85311,60.0,
152,-152,45,10,2,162,10,,,,,,,,,,,session,2418.3839093999995,150.0,2.0,72.0,0.01961572724417495,2,0.9596123000010266,1.2445894000011322,0,0.781849200000579,0.9489426000000094,0,0.5663190000013856,0.7140306000001146,,,54.0,51.0,85311,60.0,
-152,152,-45,10,3,163,4,,,,,,,,,,,session,2427.0014894000014,138.0,2.0,72.0,0.01961572724417495,2,0.8309151000030397,0.9313333000027342,0,0.2738028999992821,0.4068226000017603,0,0.4375361000020348,0.5417486000005738,,,72.0,51.0,85311,60.0,
-152,152,90,10,4,164,7,,,,,,,,,,,session,2434.700303900001,162.0,2.0,72.0,0.01961572724417495,2,0.823846199997206,0.9559811999970407,0,0.35315039999841247,0.5039882999990368,0,0.5097783000019263,0.7271966000007524,,,48.0,57.0,85311,60.0,
152,152,90,10,5,165,3,,,,,,,,,,,session,2442.8001724999995,132.0,2.0,72.0,0.01961572724417495,2,0.8307384999970964,0.962149999999383,0,0.27915950000169687,0.39660840000215103,0,0.7280645999999251,0.8788165000005392,,,69.0,60.0,85311,60.0,
-152,-152,-45,10,6,166,12,,,,,,,,,,,session,2450.8392604,174.0,2.0,72.0,0.01961572724417495,3,0.7078303999987838,0.9542980000005628,1,1.060200399999303,1.2576914000019315,1,0.9615654999979597,1.130621299998893,,,57.0,72.0,85311,60.0,
152,152,-45,10,7,167,0,,,,,,,,,,,session,2461.2516834999988,168.0,2.0,72.0,0.01961572724417495,2,0.8977124999983062,1.0475771999990684,0,0.31522039999981644,0.49868359999891254,0,0.44579349999912665,0.6452957000001334,,,72.0,54.0,85311,60.0,
152,-152,0,10,8,168,9,,,,,,,,,,,session,2469.802286099999,144.0,2.0,72.0,0.01961572724417495,4,0.930155800000648,1.1136821000000054,6,0.8244513999998162,0.95806470000025,1,1.1741903000001912,1.3690979000020889,,,60.0,60.0,85311,60.0,
152,152,0,10,9,169,1,,,,,,,,,,,session,2479.0970658000006,168.0,2.0,72.0,0.01961572724417495,4,0.9487030999989656,1.1312831999966875,0,0.4333710999999312,0.616970200000651,0,0.5291156999992381,0.7126151000011305,,,69.0,48.0,85311,60.0,
-152,-152,45,10,10,170,14,,,,,,,,,,,session,2487.7834331999984,156.0,2.0,72.0,0.01961572724417495,2,0.9308031000000483,1.0486995999999635,0,0.3126601000003575,0.5136740999987524,0,0.4780073000001721,0.6271882000000915,,,66.0,57.0,85311,60.0,
-152,152,45,10,11,171,6,,,,,,,,,,,session,2496.0723634999995,168.0,2.0,72.0,0.01961572724417495,2,0.7751326999969024,0.9422573999981978,7,0.9758522000010998,1.276165499999479,1,0.5948114999991958,0.8620300000002317,,,69.0,69.0,85311,60.0,
-152,-152,0,10,12,172,13,,,,,,,,,,,session,2506.301127499999,150.0,2.0,72.0,0.01961572724417495,2,1.0485473000007914,1.1652162999998836,0,0.41081019999910495,0.5275208999992174,0,1.5638266000023577,1.745770800000173,,,51.0,57.0,85311,60.0,
-152,152,0,10,13,173,5,,,,,,,,,,,session,2515.5059309999997,138.0,2.0,72.0,0.01961572724417495,2,0.8305357999997796,0.9530574999989767,0,0.42861640000046464,0.5786034999982803,0,1.8710996999980125,2.057753099998081,,,51.0,54.0,85311,60.0,
152,-152,90,10,14,174,11,,,,,,,,,,,session,2524.6006640999985,168.0,2.0,72.0,0.01961572724417495,2,0.9613578000025882,1.0759403000010934,0,0.011568600002647145,0.25077930000043125,0,0.40850489999866113,0.5753755000005185,,,66.0,63.0,85311,60.0,
-152,-152,90,10,15,175,15,,,,,,,,,,,session,2532.8849021999995,156.0,2.0,72.0,0.01961572724417495,2,0.9809161999983189,1.1310649000006379,0,0.2940099999977974,0.4936493999994127,0,0.4850393000015174,0.702637300000788,,,57.0,57.0,85311,60.0,
152,-152,0,11,0,176,9,,,,,,,,,,,session,2541.1613260999984,138.0,2.0,72.0,0.01961572724417495,2,0.9592463999979373,1.0930593999983103,0,0.5121685999984038,0.728906399999687,0,1.7720331000018632,1.9235412000016368,,,54.0,60.0,85311,60.0,
152,152,45,11,1,177,2,,,,,,,,,,,session,2551.268447900002,150.0,2.0,72.0,0.01961572724417495,2,0.8465197000004991,0.9633121000006213,0,0.3108020999970904,0.42713129999901867,0,0.645761499999935,0.812656900001457,,,72.0,63.0,85311,60.0,
152,-152,45,11,2,178,10,,,,,,,,,,,session,2559.6725611,180.0,2.0,72.0,0.01961572724417495,2,0.8582184000006237,1.0095413000017288,0,1.2559407999979157,1.3896769999992102,0,6.161865399997623,6.345442099998763,,,48.0,51.0,85311,60.0,
152,152,-45,11,3,179,0,,,,,,,,,,,session,2574.5335686,144.0,2.0,72.0,0.01961572724417495,2,0.8648745999998937,0.947282000000996,0,0.36407519999920623,0.48087569999916013,0,0.4124685999995563,0.5328747999992629,,,63.0,63.0,85311,60.0,
152,152,-45,11,3,179,0,,,materials/instructions\12_break.png,2582.4685943000004,2618.3479974,0,35.610579200001666,35.87752670000191,0.02121640000041225,35.88525690000097,,,,,,,,,,,,,,,,,,,,85311,60.0,
-152,152,0,11,4,180,5,,,,,,,,,,,session,2618.3642624999993,168.0,2.0,72.0,0.01961572724417495,2,0.84017970000059,0.9070799000000989,0,0.37848920000033104,0.4618860999980825,0,0.011145299999043345,0.01301180000155,,,60.0,54.0,85311,60.0,
152,-152,-45,11,5,181,8,,,,,,,,,,,session,2625.902737200002,150.0,2.0,72.0,0.01961572724417495,2,0.8006158999996842,0.866250700000819,0,0.35779700000057346,0.49018380000052275,0,0.011835600002086721,0.013754200001130812,,,57.0,51.0,85311,60.0,
-152,-152,90,11,6,182,15,,,,,,,,,,,session,2633.0360591999997,156.0,2.0,72.0,0.01961572724417495,2,0.7278630999971938,0.8463321999988693,0,0.1599396000019624,0.327055300000211,0,0.812891600002331,0.962815099999716,,,48.0,60.0,85311,60.0,
-152,152,-45,11,7,183,4,,,,,,,,,,,session,2641.0527121999985,162.0,2.0,72.0,0.01961572724417495,2,0.6385747000022093,0.8053185000026133,7,1.0159342999977525,1.266439699997136,1,0.2466615000012098,0.4293412000006356,,,72.0,69.0,85311,60.0,
-152,152,45,11,8,184,6,,,,,,,,,,,session,2650.0408317,156.0,2.0,72.0,0.01961572724417495,2,1.1206784000023617,1.2910550000015064,7,0.6743685000001278,0.8266804999984743,1,1.1818171000013535,1.3323802999984764,,,54.0,66.0,85311,60.0,
-152,-152,45,11,9,185,14,,,,,,,,,,,session,2660.087086399999,150.0,2.0,72.0,0.01961572724417495,2,1.2110843999980716,1.3612488999970083,0,0.1648728999971354,0.3831146999982593,0,0.595849299999827,0.8127185000012105,,,48.0,54.0,85311,60.0,
-152,-152,0,11,10,186,13,,,,,,,,,,,session,2668.2869281999992,150.0,2.0,72.0,0.01961572724417495,2,0.8039591999986442,0.9206231999996817,0,0.39262289999896893,0.5596378999980516,0,1.1061245999990206,1.3078790999970806,,,48.0,72.0,85311,60.0,
152,152,90,11,11,187,3,,,,,,,,,,,session,2677.0357141999993,132.0,2.0,72.0,0.01961572724417495,2,0.8455310000026657,0.978703000000678,0,0.29099549999955343,0.39120180000099936,0,0.6141782999984571,0.7957108000009612,,,66.0,48.0,85311,60.0,
-152,-152,-45,11,12,188,12,,,,,,,,,,,session,2684.7834576999994,174.0,2.0,72.0,0.01961572724417495,2,0.7792836999979045,0.946895900000527,0,0.4433701000016299,0.5244501000015589,0,1.1652302999973472,1.2967749999988882,,,72.0,51.0,85311,60.0,
-152,152,90,11,13,189,7,,,,,,,,,,,session,2693.9910638,144.0,2.0,72.0,0.01961572724417495,3,1.1249150000003283,1.2917138000011619,0,0.6246199999986857,0.8081542999971134,0,0.4290416000003461,0.5457973000011407,,,48.0,54.0,85311,60.0,
152,152,0,11,14,190,1,,,,,,,,,,,session,2702.5496208000004,150.0,2.0,72.0,0.01961572724417495,2,1.004060200000822,1.1042203000033624,0,0.16004759999850648,0.2273611999989953,0,0.5129137000003539,0.5629884000009042,,,66.0,60.0,85311,60.0,
152,-152,90,11,15,191,11,,,,,,,,,,,session,2710.4859006000006,150.0,2.0,72.0,0.01961572724417495,4,0.764314199997898,1.0165500000002794,6,0.7958474999977625,0.9958762999995088,1,0.44440259999828413,0.6105406999995466,,,57.0,54.0,85311,60.0,
152,152,-45,12,0,192,0,,,,,,,,,,,session,2718.918196999999,156.0,2.0,72.0,0.01961572724417495,2,1.1077227999994648,1.2069422999993549,0,0.3115023000027577,0.3770483000007516,0,0.6493886999996903,0.7328577000007499,,,69.0,69.0,85311,60.0,
152,152,90,12,1,193,3,,,,,,,,,,,session,2728.1193779999994,150.0,2.0,72.0,0.01961572724417495,2,0.9474268999983906,1.0652101000014227,0,0.41276400000060676,0.46196400000189897,0,0.5469807000008586,0.7303327000008721,,,66.0,66.0,85311,60.0,
-152,152,0,12,2,194,5,,,,,,,,,,,session,2736.5223012999995,180.0,2.0,72.0,0.01961572724417495,2,0.795965299999807,0.9462687999985064,0,0.32457419999991544,0.45817560000068625,0,0.4257109999998647,0.6104402000019036,,,69.0,72.0,85311,60.0,
152,-152,-45,12,3,195,8,,,,,,,,,,,session,2745.3503568000015,156.0,2.0,72.0,0.01961572724417495,2,0.8293082999989565,0.9960436000001209,0,0.010887399999774061,0.17701930000112043,0,0.6649412000006123,0.8465781000013521,,,72.0,54.0,85311,60.0,
-152,152,90,12,4,196,7,,,,,,,,,,,session,2753.520502700001,162.0,2.0,72.0,0.01961572724417495,2,0.816367799998261,0.9670972999992955,0,0.3965732000033313,0.4465927000019292,0,0.8344593000001623,1.0178273000019544,,,48.0,51.0,85311,60.0,
152,-152,45,12,5,197,10,,,,,,,,,,,session,2761.7462726000012,180.0,2.0,72.0,0.01961572724417495,4,0.6766213000009884,0.8576068000002124,7,0.8631983999985096,1.0637366000009933,1,0.7424701999989338,0.9282669999993232,,,57.0,51.0,85311,60.0,
-152,152,45,12,6,198,6,,,,,,,,,,,session,2771.5191092999994,180.0,2.0,72.0,0.01961572724417495,2,0.8602462999988347,0.9766722999993362,0,0.4982376000007207,0.6150363999986439,0,0.29539999999906286,0.462139199997182,,,54.0,54.0,85311,60.0,
152,-152,0,12,7,199,9,,,,,,,,,,,session,2779.8221691,144.0,2.0,72.0,0.01961572724417495,2,0.8176691999979084,0.9360926000008476,0,0.3759223999986716,0.45928749999802676,0,0.5238403000003018,0.6780598000004829,,,69.0,54.0,85311,60.0,
152,-152,0,12,7,199,9,,,materials/instructions\12_break.png,2787.822948600002,2814.9826986000007,0,27.091254399998434,27.157798100000946,0.023455799997464055,27.164236399999936,,,,,,,,,,,,,,,,,,,,85311,60.0,
-152,-152,90,12,8,200,15,,,,,,,,,,,session,2814.997724500001,138.0,2.0,72.0,0.01961572724417495,2,0.8177735999997822,0.8833935000002384,0,0.32787480000115465,0.3778937999995833,0,0.5124513000009756,0.5949779000002309,,,63.0,60.0,85311,60.0,
-152,-152,-45,12,9,201,12,,,,,,,,,,,session,2822.6713633,174.0,2.0,72.0,0.01961572724417495,2,0.8900438000018767,1.039232200000697,0,0.40407520000007935,0.553918599998724,0,0.552638900000602,0.7200861999990593,,,69.0,57.0,85311,60.0,
-152,-152,45,12,10,202,14,,,,,,,,,,,session,2831.466024900001,144.0,2.0,72.0,0.01961572724417495,2,0.7998994000008679,0.8484165000008943,0,0.010816400001203874,0.012689399998635054,0,0.6954676999994263,0.8454205999987607,,,69.0,72.0,85311,60.0,
-152,-152,0,12,11,203,13,,,,,,,,,,,session,2839.4218186,132.0,2.0,72.0,0.01961572724417495,2,0.8192716999983531,0.9337735000008252,0,0.5262447999994038,0.6422931000015524,0,0.49563259999922593,0.695937700002105,,,63.0,57.0,85311,60.0,
152,-152,90,12,12,204,11,,,,,,,,,,,session,2847.361018399999,138.0,2.0,72.0,0.01961572724417495,2,1.0722719000004872,1.1390205000025162,0,1.4969000999990385,1.6469923999975435,0,4.597793199998705,4.778565999997227,,,63.0,51.0,85311,60.0,
152,152,45,12,13,205,2,,,,,,,,,,,session,2860.5679710000004,168.0,2.0,72.0,0.01961572724417495,2,0.8557323999993969,0.9720659999984491,0,0.3586792999994941,0.4919680999992124,0,0.2935605000020587,0.49545840000064345,,,54.0,54.0,85311,60.0,
152,152,0,12,14,206,1,,,,,,,,,,,session,2868.592033000001,156.0,2.0,72.0,0.01961572724417495,5,0.8097788999984914,0.9944412999975611,0,0.4388034000003245,0.6768053999985568,1,0.31204040000011446,0.49502209999991464,,,63.0,63.0,85311,60.0,
-152,152,-45,12,15,207,4,,,,,,,,,,,session,2876.8880204000016,150.0,2.0,72.0,0.01961572724417495,2,0.8240065999998478,0.9561537000008684,0,0.4464047999972536,0.4971581999998307,0,0.3289336000016192,0.4456309000015608,,,54.0,54.0,85311,60.0,
152,-152,90,13,0,208,11,,,,,,,,,,,session,2884.555339300001,174.0,2.0,72.0,0.01961572724417495,4,0.8437174999999115,1.0272880000011355,6,0.8648458999996365,0.9816036000011081,1,1.2885459999997693,1.4380859000011696,,,60.0,51.0,85311,60.0,
-152,152,45,13,1,209,6,,,,,,,,,,,session,2894.1927254,180.0,2.0,72.0,0.01961572724417495,2,0.7878698999993503,0.8571147999973618,0,0.4587864000022819,0.575401400001283,0,0.608525899999222,0.775190799999109,,,51.0,57.0,85311,60.0,
152,152,-45,13,2,210,0,,,,,,,,,,,session,2903.1895311000007,180.0,2.0,72.0,0.01961572724417495,2,0.7616869999983464,0.92847189999884,0,0.5117150000005495,0.5789111999984016,0,0.7057649999987916,0.7551825999980792,,,60.0,54.0,85311,60.0,
-152,152,0,13,3,211,5,,,,,,,,,,,session,2911.8068305000015,174.0,2.0,72.0,0.01961572724417495,2,0.7662723000030383,0.8162915000029898,0,0.3664119999994,0.42239790000166977,0,0.5883179000011296,0.6550481000012951,,,63.0,69.0,85311,60.0,
-152,-152,0,13,4,212,13,,,,,,,,,,,session,2920.267061900002,180.0,2.0,72.0,0.01961572724417495,2,0.9935815000026196,1.0621718000002147,0,0.5615261999992072,0.6287154000019655,0,0.6115548999987368,0.6984023000004527,,,48.0,63.0,85311,60.0,
152,-152,0,13,5,213,9,,,,,,,,,,,session,2928.9727697000017,168.0,2.0,72.0,0.01961572724417495,2,0.8382783000015479,0.903034300001309,0,0.7288981000019703,0.7778686999990896,0,0.6628536999996868,0.7294555000007676,,,60.0,51.0,85311,60.0,
152,-152,45,13,6,214,10,,,,,,,,,,,session,2937.4934869999997,168.0,2.0,72.0,0.01961572724417495,4,0.7407452000006742,0.8908129000010376,7,0.8538757000023907,1.0538474999993923,1,0.3689964000004693,0.521464699999342,,,51.0,57.0,85311,60.0,
152,-152,-45,13,7,215,8,,,,,,,,,,,session,2946.521708100001,132.0,2.0,72.0,0.01961572724417495,2,0.8794391000010364,0.9628824999999779,0,0.3663066000008257,0.5005058999995526,0,0.5626475999997638,0.7290615000019898,,,60.0,63.0,85311,60.0,
152,152,45,13,8,216,2,,,,,,,,,,,session,2954.437875399999,126.0,2.0,72.0,0.01961572724417495,2,0.8499493000017537,0.9491855000014766,0,0.26141049999932875,0.41114749999906053,0,0.5008224999983213,0.6517888999987917,,,72.0,51.0,85311,60.0,
-152,-152,-45,13,9,217,12,,,,,,,,,,,session,2962.0823944000003,144.0,2.0,72.0,0.01961572724417495,3,1.0068694000001415,1.1924914000010176,1,0.5970181999982742,0.7959668000003148,1,0.46282480000081705,0.6307176000009349,,,66.0,72.0,85311,60.0,
152,152,0,13,10,218,1,,,,,,,,,,,session,2971.3562261000006,126.0,2.0,72.0,0.01961572724417495,2,1.0621143999997003,1.1779821999989508,0,0.23346769999989192,0.49915109999710694,0,0.369144199998118,0.5523639999992156,,,66.0,69.0,85311,60.0,
-152,152,90,13,11,219,7,,,,,,,,,,,session,2979.3952525999994,138.0,2.0,72.0,0.01961572724417495,2,1.1983135000009497,1.4014820999982476,0,0.8786887999995088,1.0286736999987625,0,0.5070221000023594,0.7280076000024565,,,63.0,57.0,85311,60.0,
-152,152,90,13,11,219,7,,,materials/instructions\12_break.png,2988.3570758999995,3035.6345631000004,0,47.20876420000059,47.2754958000005,0.01297329999943031,47.28303959999903,,,,,,,,,,,,,,,,,,,,85311,60.0,
-152,-152,45,13,12,220,14,,,,,,,,,,,session,3035.650649700001,180.0,2.0,72.0,0.01961572724417495,2,0.826009399999748,0.9928522000009252,0,0.39400000000023283,0.5617472999983875,0,0.7440854999986186,0.9280237000020861,,,54.0,63.0,85311,60.0,
152,152,90,13,13,221,3,,,,,,,,,,,session,3044.542403800002,168.0,2.0,72.0,0.01961572724417495,2,0.760859400001209,0.8276101000010385,0,0.40421520000018063,0.47073870000167517,0,0.5601186999992933,0.6270113999999012,,,72.0,57.0,85311,60.0,
-152,152,-45,13,14,222,4,,,,,,,,,,,session,3052.889632999999,174.0,2.0,72.0,0.01961572724417495,2,0.8811247999983607,1.014696099999128,0,0.40896710000015446,0.4758789999978035,0,0.7456947999999102,0.8146907999980613,,,51.0,48.0,85311,60.0,
-152,-152,90,13,15,223,15,,,,,,,,,,,session,3061.2066723999997,180.0,2.0,72.0,0.01961572724417495,2,0.8137668000017584,0.8962896000011824,0,0.32944510000015725,0.37964849999843864,0,0.5617843999971228,0.6261980999988737,,,69.0,72.0,85311,60.0,
152,152,90,14,0,224,3,,,,,,,,,,,session,3069.911414000002,174.0,2.0,72.0,0.01961572724417495,2,0.5778615999988688,0.64735699999801,0,0.37538609999683104,0.5253868999971019,0,0.20837609999944107,0.47809119999874383,,,69.0,69.0,85311,60.0,
152,-152,90,14,1,225,11,,,,,,,,,,,session,3078.738500200001,168.0,2.0,72.0,0.01961572724417495,2,0.6271503999996639,0.7271990000008373,0,0.39638290000220877,0.5455293000013626,0,0.5179403000001912,0.6309740999968199,,,72.0,60.0,85311,60.0,
152,152,45,14,2,226,2,,,,,,,,,,,session,3087.104583100001,156.0,2.0,72.0,0.01961572724417495,2,0.6643994999976712,0.781926099996781,0,0.26624579999770503,0.38294279999900027,0,0.5217277000010654,0.6727430999999342,,,51.0,51.0,85311,60.0,
-152,-152,0,14,3,227,13,,,,,,,,,,,session,3094.683630899999,174.0,2.0,72.0,0.01961572724417495,2,0.6748871999989206,0.758485300000757,0,0.5760837999987416,0.760120700000698,0,1.062360300002183,1.3439237000020512,,,60.0,54.0,85311,60.0,
152,-152,0,14,4,228,9,,,,,,,,,,,session,3104.304318300001,138.0,2.0,72.0,0.01961572724417495,2,0.7914164000030723,0.8751920000031532,0,0.41331609999906505,0.4802239999989979,0,0.3977640999983123,0.4644044999986363,,,54.0,69.0,85311,60.0,
-152,152,45,14,5,229,6,,,,,,,,,,,session,3111.9288110999987,150.0,2.0,72.0,0.01961572724417495,2,0.7971323000019765,0.85495230000015,0,0.6426524000016798,0.6876888000006147,0,0.9619663000012224,1.1615596000010555,,,72.0,48.0,85311,60.0,
152,-152,45,14,6,230,10,,,,,,,,,,,session,3120.6058691,150.0,2.0,72.0,0.01961572724417495,2,0.7594535000025644,0.8595838000001095,0,0.3117868000008457,0.4978776000025391,0,0.24723919999814825,0.4272103999974206,,,57.0,72.0,85311,60.0,
-152,152,0,14,7,231,5,,,,,,,,,,,session,3128.503775600002,138.0,2.0,72.0,0.01961572724417495,2,0.9158284000004642,1.132627399998455,0,0.4153067999977793,0.61529999999766,1,0.33439419999922393,0.5012752000002365,,,66.0,60.0,85311,60.0,
-152,152,90,14,8,232,7,,,,,,,,,,,session,3136.594412800001,156.0,2.0,72.0,0.01961572724417495,2,0.6547475000006671,0.8042825000011362,6,0.8831635999995342,1.016874100001587,1,0.8306118000000424,0.9788096999982372,,,69.0,60.0,85311,60.0,
152,-152,-45,14,9,233,8,,,,,,,,,,,session,3146.1413820999987,162.0,2.0,72.0,0.01961572724417495,2,0.8565586999975494,1.0079710999998497,0,0.16684650000024703,0.3670017000004009,0,0.3461301999996067,0.48059619999912684,,,60.0,66.0,85311,60.0,
152,152,-45,14,10,234,0,,,,,,,,,,,session,3154.2599254000015,168.0,2.0,72.0,0.01961572724417495,2,1.1092524000014237,1.3100890000023355,0,0.3253163000008499,0.5921249000020907,0,0.8445481000017026,1.065118499998789,,,72.0,72.0,85311,60.0,
-152,152,-45,14,11,235,4,,,,,,,,,,,session,3163.8573792999996,138.0,2.0,72.0,0.01961572724417495,2,0.8652275999993435,1.0330297000000428,0,0.2781620000023395,0.479004700002406,0,0.4097471000022779,0.5930738000024576,,,69.0,57.0,85311,60.0,
152,152,0,14,12,236,1,,,,,,,,,,,session,3171.8200929000013,168.0,2.0,72.0,0.01961572724417495,2,0.771407399999589,0.8880750999996962,0,0.4589486999975634,0.5762578999965626,0,0.7128737999992154,0.896312199998647,,,51.0,57.0,85311,60.0,
-152,-152,45,14,13,237,14,,,,,,,,,,,session,3180.244368300002,168.0,2.0,72.0,0.01961572724417495,3,0.8106122999997751,1.0095437000018137,7,0.9432575999999244,1.12741620000088,1,1.7766093000027467,1.9765541000015219,,,48.0,51.0,85311,60.0,
-152,-152,90,14,14,238,15,,,,,,,,,,,session,3190.8735626999987,168.0,2.0,72.0,0.01961572724417495,2,1.1140564999986964,1.3141921999995247,0,0.363764199999423,0.4973778999992646,0,0.5989348000002792,0.7660873999993782,,,63.0,66.0,85311,60.0,
-152,-152,-45,14,15,239,12,,,,,,,,,,,session,3199.8604870000017,132.0,2.0,72.0,0.01961572724417495,2,0.7802940000001399,0.9144892000003892,0,0.2712324999993143,0.42135359999883804,0,0.4138150999970094,0.6139267999969888,,,72.0,69.0,85311,60.0,
-152,-152,-45,14,15,239,12,,,materials/instructions\12_break.png,3207.880459799999,3257.2188276999987,0,49.08759890000147,49.336376800001744,0.01987860000008368,49.34453150000263,,,,,,,,,,,,,,,,,,,,85311,60.0,
-152,152,90,15,0,240,7,,,,,,,,,,,session,3257.2354409,180.0,2.0,72.0,0.01961572724417495,2,1.1005651999985275,1.1511772999983805,0,0.29738080000242917,0.4168067000027804,0,0.4289007000006677,0.5810160000000906,,,57.0,54.0,85311,60.0,
-152,-152,0,15,1,241,13,,,,,,,,,,,session,3265.6818359999997,150.0,2.0,72.0,0.01961572724417495,2,0.6950093999985256,0.7951795000008133,0,0.3060120999980427,0.4560242000006838,0,0.5447533000005933,0.740840800001024,,,69.0,60.0,85311,60.0,
152,152,90,15,2,242,3,,,,,,,,,,,session,3273.8202481000008,180.0,2.0,72.0,0.01961572724417495,2,0.7108668000000762,0.7940988000009384,0,0.5286714999965625,0.6098566999971808,0,0.4442802000012307,0.6110702000005404,,,48.0,72.0,85311,60.0,
152,152,0,15,3,243,1,,,,,,,,,,,session,3282.3055719000004,156.0,2.0,72.0,0.01961572724417495,2,0.7290379000005487,0.8617809000024863,0,0.36212829999931273,0.5278281999999308,0,0.31195450000086566,0.5445927000000665,,,48.0,69.0,85311,60.0,
152,-152,90,15,4,244,11,,,,,,,,,,,session,3290.245055200001,150.0,2.0,72.0,0.01961572724417495,2,0.7225006999979087,0.8105903999967268,0,0.2780430000020715,0.39105380000182777,0,0.26374809999833815,0.4137442999999621,,,60.0,48.0,85311,60.0,
-152,-152,45,15,5,245,14,,,,,,,,,,,session,3297.8567729999995,156.0,2.0,72.0,0.01961572724417495,2,0.7802253999980167,1.0452202999986184,0,0.3460479999994277,0.5962330000002112,0,0.3724216999980854,0.5234055000000808,,,48.0,66.0,85311,60.0,
-152,152,-45,15,6,246,4,,,,,,,,,,,session,3305.9746185000004,150.0,2.0,72.0,0.01961572724417495,2,0.7175318000008701,0.8022176000013133,0,0.37030550000054063,0.5370631000005233,0,0.544310500001302,0.7277767000014137,,,63.0,60.0,85311,60.0,
152,-152,45,15,7,247,10,,,,,,,,,,,session,3314.0308821,162.0,2.0,72.0,0.01961572724417495,4,1.0393431000011333,1.1900007000003825,6,1.0630141000001458,1.2151417000022775,1,0.3137418999976944,0.4470454000002064,,,54.0,66.0,85311,60.0,
-152,-152,-45,15,8,248,12,,,,,,,,,,,session,3323.7738180999986,180.0,2.0,72.0,0.01961572724417495,4,1.2286731000021973,1.3959805000013148,1,0.7794314999991911,0.9796324000017194,1,0.36067869999897084,0.5272636000008788,,,69.0,48.0,85311,60.0,
152,152,-45,15,9,249,0,,,,,,,,,,,session,3333.0774740000015,132.0,2.0,72.0,0.01961572724417495,2,0.8312888000000385,0.9346804000015254,0,0.2086708999995608,0.40865130000020145,0,0.3034707000006165,0.45709229999920353,,,72.0,66.0,85311,60.0,
152,152,45,15,10,250,2,,,,,,,,,,,session,3340.8256447999993,144.0,2.0,72.0,0.01961572724417495,2,0.7329917999995814,0.832947899998544,0,0.3292804000011529,0.42752889999974286,0,0.30464499999652617,0.5046524999997928,,,66.0,51.0,85311,60.0,
-152,152,0,15,11,251,5,,,,,,,,,,,session,3348.405890400001,180.0,2.0,72.0,0.01961572724417495,2,0.8113769999981741,0.9281704999993963,0,0.39694910000253003,0.4636534999990545,0,0.39729110000189394,0.5472036999999546,,,48.0,60.0,85311,60.0,
-152,-152,90,15,12,252,15,,,,,,,,,,,session,3356.6138293000004,126.0,2.0,72.0,0.01961572724417495,2,1.108306400001311,1.2203351000025577,0,0.37353259999872535,0.5272709999990184,0,0.6304683000016666,0.7950517999997828,,,51.0,63.0,85311,60.0,
-152,152,45,15,13,253,6,,,,,,,,,,,session,3364.8397167000003,162.0,2.0,72.0,0.01961572724417495,2,1.277314999999362,1.3939185999988695,0,0.32919769999716664,0.4627230000005511,0,2.3613207999987935,2.629299899999751,,,51.0,54.0,85311,60.0,
152,-152,0,15,14,254,9,,,,,,,,,,,session,3375.244118300001,174.0,2.0,72.0,0.01961572724417495,2,0.7647176999998919,0.9296017000015127,0,0.3501572000022861,0.4916138000007777,0,0.3818933000002289,0.5533886999983224,,,48.0,51.0,85311,60.0,
152,-152,-45,15,15,255,8,,,,,,,,,,,session,3383.225981899999,144.0,2.0,72.0,0.01961572724417495,4,0.8103335999985575,1.01031950000106,1,1.639601599999878,1.756456300001446,1,0.647357000001648,0.8641975000027742,,,72.0,69.0,85311,60.0,
152,-152,-45,16,0,256,8,,,,,,,,,,,session,3393.226808200001,126.0,2.0,72.0,0.01961572724417495,4,0.36336170000140555,0.5635875000007218,6,0.5950434000005771,0.7284951000001456,1,0.2808930999999575,0.4308181999986118,,,54.0,57.0,85311,60.0,
152,152,90,16,1,257,3,,,,,,,,,,,session,3400.3464773000014,162.0,2.0,72.0,0.01961572724417495,2,0.9865132000013546,1.0910132000026351,0,0.12692729999980656,0.25676750000275206,0,0.3582258999995247,0.4416657000001578,,,60.0,57.0,85311,60.0,
152,-152,45,16,2,258,10,,,,,,,,,,,session,3408.5050955000006,180.0,2.0,72.0,0.01961572724417495,2,0.7302267999984906,0.879241999999067,0,0.3798878000015975,0.5466412000023411,0,0.6141134000026796,0.8636361000026227,,,51.0,51.0,85311,60.0,
-152,152,-45,16,3,259,4,,,,,,,,,,,session,3416.941670100001,126.0,2.0,72.0,0.01961572724417495,2,0.7505785000030301,0.8033421000000089,0,0.6938784999983909,0.760596500000247,0,0.4116733999981079,0.5437509000003047,,,54.0,72.0,85311,60.0,
-152,152,-45,16,3,259,4,,,materials/instructions\12_break.png,3424.6954001999984,3446.4785279999996,0,21.597703499999625,21.78109989999939,0.020638999998482177,21.789122700000007,,,,,,,,,,,,,,,,,,,,85311,60.0,
-152,-152,-45,16,4,260,12,,,,,,,,,,,session,3446.494294100001,150.0,2.0,72.0,0.01961572724417495,3,0.6481849000010698,0.8650033999983862,1,0.2939472999969439,0.4267846999973699,1,0.8096755999977177,0.9930383999999322,,,51.0,57.0,85311,60.0,
-152,152,45,16,5,261,6,,,,,,,,,,,session,3455.176893,168.0,2.0,72.0,0.01961572724417495,2,0.8925162000014097,0.992609299999458,0,0.3297482999987551,0.5466202999996312,0,0.5804829000007885,0.8140482999988308,,,63.0,72.0,85311,60.0,
152,-152,0,16,6,262,9,,,,,,,,,,,session,3464.0452248,126.0,2.0,72.0,0.01961572724417495,2,0.7463071999991371,0.8129957999990438,0,0.3848348999999871,0.4681167999988247,0,0.8515399999996589,0.9559723000020313,,,66.0,66.0,85311,60.0,
-152,152,90,16,7,263,7,,,,,,,,,,,session,3472.0424219000015,144.0,2.0,72.0,0.01961572724417495,2,0.7397287999992841,0.839943899998616,0,0.3372869000013452,0.45306780000100844,0,0.492548700000043,0.6916282999991381,,,54.0,54.0,85311,60.0,
152,152,-45,16,8,264,0,,,,,,,,,,,session,3479.756999199999,132.0,2.0,72.0,0.01961572724417495,2,0.8598418000001402,0.9431779000005918,0,0.26191100000141887,0.430627400000958,0,0.47800009999991744,0.6458377999988443,,,57.0,60.0,85311,60.0,
152,152,0,16,9,265,1,,,,,,,,,,,session,3487.3808611999993,132.0,2.0,72.0,0.01961572724417495,2,2.282737500001531,2.4379767999998876,0,0.3470250999998825,0.4942713999989792,0,0.29545750000033877,0.4952521000013803,,,51.0,72.0,85311,60.0,
-152,-152,45,16,10,266,14,,,,,,,,,,,session,3496.5066632000016,144.0,2.0,72.0,0.01961572724417495,2,1.5059118999997736,1.6039462000007916,0,0.29411030000119354,0.4268513000024541,0,0.5632995000014489,0.7447100999997929,,,66.0,69.0,85311,60.0,
152,-152,90,16,11,267,11,,,,,,,,,,,session,3505.392371099999,162.0,2.0,72.0,0.01961572724417495,4,0.6654877000000852,0.8156601000009687,6,0.9988962000024912,1.0967554000017117,1,0.39667139999801293,0.5795400999995763,,,69.0,48.0,85311,60.0,
-152,152,0,16,12,268,5,,,,,,,,,,,session,3513.9824904000016,168.0,2.0,72.0,0.01961572724417495,2,0.9103356999985408,1.0434195999987423,0,0.47482080000190763,0.5913065999993705,0,0.32613019999917015,0.5108361999991757,,,54.0,69.0,85311,60.0,
-152,-152,0,16,13,269,13,,,,,,,,,,,session,3522.9921872999985,150.0,2.0,72.0,0.01961572724417495,2,0.7477398999981233,0.8478725999993912,0,0.09531470000001718,0.22922249999828637,0,0.4297251999996661,0.6298258000024362,,,69.0,57.0,85311,60.0,
152,152,45,16,14,270,2,,,,,,,,,,,session,3530.7483773999993,132.0,2.0,72.0,0.01961572724417495,2,0.7438360999985889,0.8675961000008101,0,0.2525208000006387,0.4108206999990216,0,0.3957779999982449,0.4624633999992511,,,57.0,63.0,85311,60.0,
-152,-152,90,16,15,271,15,,,,,,,,,,,session,3538.1596548000016,162.0,2.0,72.0,0.01961572724417495,2,0.7267327000008663,0.8433645000004617,0,0.11052969999946072,0.22942210000110208,0,0.42280770000070333,0.5562054999973043,,,57.0,48.0,85311,60.0,
152,152,90,17,0,272,3,,,,,,,,,,,session,3545.8242863999985,144.0,2.0,72.0,0.01961572724417495,2,0.8083695999994234,0.9253905000005034,0,0.2797129999999015,0.4464890999988711,0,0.7427241000004869,0.9278438000001188,,,66.0,66.0,85311,60.0,
152,-152,90,17,1,273,11,,,,,,,,,,,session,3554.1814240999993,126.0,2.0,72.0,0.01961572724417495,2,0.651204300000245,0.8013667999985046,0,0.5717191999974602,0.6167687999986811,0,0.41839270000127726,0.5723381000025256,,,48.0,57.0,85311,60.0,
152,152,45,17,2,274,2,,,,,,,,,,,session,3561.527489600001,156.0,2.0,72.0,0.01961572724417495,2,0.7097838000008778,0.8097686000000976,0,0.316523599998618,0.3980952999991132,0,0.3633778000003076,0.4449964000014006,,,54.0,66.0,85311,60.0,
-152,-152,90,17,3,275,15,,,,,,,,,,,session,3569.2397189000003,144.0,2.0,72.0,0.01961572724417495,3,0.8639591000028304,1.0310348000020895,6,1.298651200002496,1.4147757999999158,1,0.949291799999628,1.11595429999943,,,54.0,63.0,85311,60.0,
-152,152,45,17,4,276,6,,,,,,,,,,,session,3578.5983545000017,156.0,2.0,72.0,0.01961572724417495,2,0.8591359999991255,1.0424157999987074,0,0.27841199999966193,0.46168259999831207,0,0.423301700000593,0.5929135000005772,,,54.0,72.0,85311,60.0,
-152,152,-45,17,5,277,4,,,,,,,,,,,session,3587.5612488000006,132.0,2.0,72.0,0.01961572724417495,2,0.8499335999986215,1.0021768999977212,0,0.49318270000003395,0.7605863999997382,0,0.46278739999979734,0.6795793999990565,,,51.0,69.0,85311,60.0,
-152,-152,-45,17,6,278,12,,,,,,,,,,,session,3595.6812218999985,168.0,2.0,72.0,0.01961572724417495,3,0.7279769999986456,0.9447560000007797,1,1.1935546000022441,1.3597914000019955,1,0.3663521000016772,0.5831612000001769,,,48.0,48.0,85311,60.0,
152,-152,-45,17,7,279,8,,,,,,,,,,,session,3604.4224538000017,138.0,2.0,72.0,0.01961572724417495,4,0.7467182000000321,0.9290657000019564,1,2.037614900000335,2.2377240999994683,1,0.530460399997537,0.6805361999977322,,,57.0,51.0,85311,60.0,
152,-152,-45,17,7,279,8,,,materials/instructions\12_break.png,3613.9695936999997,3643.7957145,0,29.67399220000152,29.823999100000947,0.023639399998501176,29.83216999999786,,,,,,,,,,,,,,,,,,,,85311,60.0,
152,-152,45,17,8,280,10,,,,,,,,,,,session,3643.811540999999,138.0,2.0,72.0,0.01961572724417495,2,0.9509232999989763,1.0344612000008055,0,0.01084429999900749,0.0949092999981076,0,0.6435504000000947,0.7960763999981282,,,66.0,48.0,85311,60.0,
-152,152,90,17,9,281,7,,,,,,,,,,,session,3651.6440503999984,168.0,2.0,72.0,0.01961572724417495,2,0.8291074999979173,0.9096725999988848,0,0.3930545000002894,0.5431840999990527,0,0.3951476000002003,0.5786021000021719,,,69.0,60.0,85311,60.0,
152,-152,0,17,10,282,9,,,,,,,,,,,session,3660.0938806000013,126.0,2.0,72.0,0.01961572724417495,2,1.100730799997109,1.1994025999993028,0,0.41319839999778196,0.48009499999898253,0,0.314519300001848,0.5312474999991537,,,54.0,60.0,85311,60.0,
-152,-152,45,17,11,283,14,,,,,,,,,,,session,3667.750474200002,174.0,2.0,72.0,0.01961572724417495,4,1.1150077000020246,1.3649506000001566,0,1.1939643999976397,1.4433018999989145,1,0.3935060000003432,0.5790648000001966,,,72.0,51.0,85311,60.0,
152,152,0,17,12,284,1,,,,,,,,,,,session,3678.2300265000013,162.0,2.0,72.0,0.01961572724417495,2,1.011500900000101,1.1092772000010882,0,0.04726419999860809,0.36582719999933033,0,0.16290610000214656,0.4297593000010238,,,54.0,48.0,85311,60.0,
-152,152,0,17,13,285,5,,,,,,,,,,,session,3685.9967841,138.0,2.0,72.0,0.01961572724417495,5,1.3490710999976727,1.4823931999999331,7,1.1810025999984646,1.3307300000014948,1,0.3627348999980313,0.5149779999992461,,,69.0,72.0,85311,60.0,
152,152,-45,17,14,286,0,,,,,,,,,,,session,3695.410850700002,180.0,2.0,72.0,0.01961572724417495,2,0.9440290999991703,1.0120888999990711,0,0.3794164999999339,0.49616819999937434,0,1.2266940000008617,1.4601961000007577,,,72.0,60.0,85311,60.0,
-152,-152,0,17,15,287,13,,,,,,,,,,,session,3705.0448531,156.0,2.0,72.0,0.01961572724417495,3,0.6462733000007574,0.8288671000009344,1,0.6295972000007168,0.7803690000000643,1,0.4371791999983543,0.6203520999988541,,,66.0,57.0,85311,60.0,
152,-152,45,18,0,288,10,,,,,,,,,,,session,3713.376863199999,138.0,2.0,72.0,0.01961572724417495,4,0.9557569000025978,1.139071800000238,7,0.743957999999111,0.9123653000024206,1,0.7624770000002172,0.9456339999996999,,,66.0,69.0,85311,60.0,
152,152,0,18,1,289,1,,,,,,,,,,,session,3722.892550299999,144.0,2.0,72.0,0.01961572724417495,2,0.8814671999971324,1.0315448999972432,0,0.24882179999985965,0.4650532999985444,0,0.5601922000023478,0.726345200000651,,,66.0,72.0,85311,60.0,
152,-152,90,18,2,290,11,,,,,,,,,,,session,3731.2669577000015,162.0,2.0,72.0,0.01961572724417495,2,0.904114799999661,1.0388213000005635,0,0.03370859999995446,0.19220579999819165,0,2.629196399997454,2.8127601999985927,,,63.0,48.0,85311,60.0,
152,-152,0,18,3,291,9,,,,,,,,,,,session,3741.412292699999,180.0,2.0,72.0,0.01961572724417495,2,0.6808612999993784,0.7788533999992069,0,0.49088400000255206,0.5586880000009842,0,0.6649567000022216,0.8481806000017968,,,72.0,60.0,85311,60.0,
152,152,45,18,4,292,2,,,,,,,,,,,session,3750.246775300002,132.0,2.0,72.0,0.01961572724417495,2,0.7779616000007081,0.8780769000004511,0,0.3621101999997336,0.48178980000011506,0,0.733470800001669,0.8165268000011565,,,57.0,51.0,85311,60.0,
-152,152,90,18,5,293,7,,,,,,,,,,,session,3757.877884900001,180.0,2.0,72.0,0.01961572724417495,2,0.6522799000013038,0.7686925000016345,0,0.347042400000646,0.3956088000013551,0,0.49650219999966794,0.6631656999998086,,,63.0,60.0,85311,60.0,
152,152,90,18,6,294,3,,,,,,,,,,,session,3766.692756299999,168.0,2.0,72.0,0.01961572724417495,2,0.7048665000002075,0.8728033999977924,0,0.010930199998256285,0.06152769999971497,0,0.011144399999466259,0.013102099997922778,,,72.0,72.0,85311,60.0,
-152,-152,90,18,7,295,15,,,,,,,,,,,session,3774.2982937999986,162.0,2.0,72.0,0.01961572724417495,2,0.8347362999993493,0.9996124999997846,0,0.3340570000000298,0.5339635999989696,0,0.6133441999991192,0.8594283000020368,,,48.0,63.0,85311,60.0,
-152,152,0,18,8,296,5,,,,,,,,,,,session,3782.7082182999984,168.0,2.0,72.0,0.01961572724417495,2,0.9405049999986659,1.1057022999993933,0,0.6802677000014228,0.8128254000002926,0,0.5437832999996317,0.7277853999985382,,,63.0,51.0,85311,60.0,
152,-152,-45,18,9,297,8,,,,,,,,,,,session,3791.5290145,180.0,2.0,72.0,0.01961572724417495,4,0.44617959999959567,0.7622273000015412,6,2.046132300001773,2.212881200000993,1,0.3421237000002293,0.5089284000023326,,,54.0,72.0,85311,60.0,
-152,-152,-45,18,10,298,12,,,,,,,,,,,session,3801.562017600001,168.0,2.0,72.0,0.01961572724417495,3,0.47533340000154567,0.7253105000017968,1,0.3794402999992599,0.5300358999993477,1,1.0912771000002977,1.308299199998146,,,63.0,51.0,85311,60.0,
-152,152,45,18,11,299,6,,,,,,,,,,,session,3810.8430885000016,132.0,2.0,72.0,0.01961572724417495,2,0.9711322000002838,1.2046026999996684,0,0.4458051000001433,0.6459111000003759,0,3.7480041999988316,3.915707799998927,,,66.0,60.0,85311,60.0,
-152,152,45,18,11,299,6,,,materials/instructions\12_break.png,3822.3991509000007,3959.0377310000003,0,136.52378139999928,136.63660270000037,0.02024340000207303,136.64830110000185,,,,,,,,,,,,,,,,,,,,85311,60.0,
-152,-152,0,18,12,300,13,,,,,,,,,,,session,3959.0580136999997,150.0,2.0,72.0,0.01961572724417495,2,0.9725232000018877,1.0725237000006018,0,0.39386039999953937,0.4607572999993863,0,0.6447627000015927,0.8283053000013751,,,48.0,66.0,85311,60.0,
-152,152,-45,18,13,301,4,,,,,,,,,,,session,3967.2782566999995,180.0,2.0,72.0,0.01961572724417495,2,0.8469890999986092,0.948765099998127,0,0.3932248000019172,0.49239310000120895,0,0.497125000001688,0.6966968000015186,,,66.0,60.0,85311,60.0,
-152,-152,45,18,14,302,14,,,,,,,,,,,session,3975.9688725000015,174.0,2.0,72.0,0.01961572724417495,2,0.8406542999982776,0.9538924000007682,0,0.3767160999996122,0.5264347000011185,0,0.3972159000004467,0.4966026000001875,,,51.0,57.0,85311,60.0,
152,152,-45,18,15,303,0,,,,,,,,,,,session,3984.6777275999993,138.0,2.0,72.0,0.01961572724417495,2,0.8121049000001221,0.9136854999997013,0,0.21196219999910682,0.2953300000008312,0,0.5969116999985999,0.6636819999985164,,,57.0,51.0,85311,60.0,
152,-152,45,19,0,304,10,,,,,,,,,,,session,3992.0815445000007,144.0,2.0,72.0,0.01961572724417495,2,0.6324248999990232,0.7506247999990592,0,0.3780832000011287,0.444899300000543,0,0.45943150000312016,0.5292153000009421,,,54.0,54.0,85311,60.0,
-152,152,45,19,1,305,6,,,,,,,,,,,session,3999.4557991,144.0,2.0,72.0,0.01961572724417495,2,0.6043868999986444,0.7880377000001317,0,0.5108134000001883,0.6940638000014587,0,0.5094454999998561,0.6928255999991961,,,51.0,60.0,85311,60.0,
152,152,90,19,2,306,3,,,,,,,,,,,session,4007.9656447000016,138.0,2.0,72.0,0.01961572724417495,2,0.8587399000025471,1.009010699999635,0,0.41167489999861573,0.46165579999797046,0,0.4775874000006297,0.6795788000017637,,,63.0,63.0,85311,60.0,
-152,152,-45,19,3,307,4,,,,,,,,,,,session,4015.9839642000006,138.0,2.0,72.0,0.01961572724417495,2,0.6091397999989567,0.7926263000008476,0,0.2824905999987095,0.35032460000002175,0,0.4237238999994588,0.556751299998723,,,48.0,51.0,85311,60.0,
-152,152,0,19,4,308,5,,,,,,,,,,,session,4023.0969847000015,132.0,2.0,72.0,0.01961572724417495,2,0.6748991000022215,0.791992599999503,6,1.1254367000001366,1.3420755000006466,1,0.3996021000020846,0.56632879999961,,,66.0,51.0,85311,60.0,
-152,-152,90,19,5,309,15,,,,,,,,,,,session,4031.847095199999,180.0,2.0,72.0,0.01961572724417495,3,0.679598899998382,0.879766699999891,6,0.8437002999999095,0.9758618000014394,1,0.29199639999933424,0.44383550000202376,,,48.0,66.0,85311,60.0,
152,-152,0,19,6,310,9,,,,,,,,,,,session,4040.487605099999,180.0,2.0,72.0,0.01961572724417495,2,1.0895713999998407,1.201545799998712,0,0.3590078999986872,0.5284525999995822,0,0.36198589999912656,0.5616116999990481,,,57.0,69.0,85311,60.0,
152,152,-45,19,7,311,0,,,,,,,,,,,session,4049.5138344000006,150.0,2.0,72.0,0.01961572724417495,2,0.8668475999984366,0.9836804999977176,0,0.42969340000126977,0.5622820999997202,0,0.4306739999992715,0.6639664999966044,,,57.0,69.0,85311,60.0,
-152,-152,-45,19,8,312,12,,,,,,,,,,,session,4057.7637571000014,168.0,2.0,72.0,0.01961572724417495,2,0.678370099998574,0.8091089999979886,0,0.5485776999994414,0.681853999998566,0,0.4096047999992152,0.7128539000004821,,,57.0,66.0,85311,60.0,
-152,-152,45,19,9,313,14,,,,,,,,,,,session,4066.275628800002,168.0,2.0,72.0,0.01961572724417495,2,0.7817711999996391,1.031763900002261,0,0.2296913999998651,0.39744860000064364,0,0.5873848000010184,0.7853869999999006,,,69.0,48.0,85311,60.0,
152,152,0,19,10,314,1,,,,,,,,,,,session,4075.3287361000002,156.0,2.0,72.0,0.01961572724417495,2,0.7318186999982572,0.8162439000006998,0,0.3598141000002215,0.4954195999998774,0,0.45953519999966375,0.6263276999998197,,,66.0,66.0,85311,60.0,
-152,152,90,19,11,315,7,,,,,,,,,,,session,4083.517867499999,174.0,2.0,72.0,0.01961572724417495,2,0.819503500002611,0.9474767000028805,0,0.43419210000138264,0.5010187000007136,0,0.3705139000012423,0.6372249999985797,,,54.0,63.0,85311,60.0,
152,-152,90,19,12,316,11,,,,,,,,,,,session,4091.9443991000007,156.0,2.0,72.0,0.01961572724417495,4,0.7117527999980666,0.9132336000002397,6,0.5607826999985264,0.7277026000010665,1,0.7304804000013974,0.9140074999995704,,,54.0,69.0,85311,60.0,
152,-152,-45,19,13,317,8,,,,,,,,,,,session,4100.629941200001,138.0,2.0,72.0,0.01961572724417495,2,0.8378441999993811,0.9212728999991668,0,0.36275790000217967,0.4144238000008045,0,0.5131879000000481,0.6798947999996017,,,60.0,63.0,85311,60.0,
152,152,45,19,14,318,2,,,,,,,,,,,session,4108.453560900001,168.0,2.0,72.0,0.01961572724417495,2,0.8566108999984863,0.9866160999990825,0,0.6778981999996176,0.8779599999979837,0,0.011356499999237712,0.17806510000082199,,,51.0,66.0,85311,60.0,
-152,-152,0,19,15,319,13,,,,,,,,,,,session,4117.2445501,150.0,2.0,72.0,0.01961572724417495,2,0.813831499999651,0.8981251000004704,0,0.36483399999997346,0.4471582000005583,0,0.4087791999991168,0.6088937999993504,,,66.0,57.0,85311,60.0,
-152,-152,0,19,15,319,13,,,materials/instructions\12_break.png,4125.2165608,4141.8102239,0,16.508505999998306,16.591921100000036,0.016810099998110672,16.599778299998434,,,,,,,,,,,,,,,,,,,,85311,60.0,
152,152,45,20,0,320,2,,,,,,,,,,,session,4141.8268443000015,144.0,2.0,72.0,0.01961572724417495,2,0.9051386999999522,0.9733919999998761,0,0.4638273999989906,0.514864699998725,0,0.36611469999843393,0.43282059999910416,,,57.0,48.0,85311,60.0,
-152,152,45,20,1,321,6,,,,,,,,,,,session,4149.3536018999985,174.0,2.0,72.0,0.01961572724417495,2,0.6460641999983636,0.7302512999995088,0,0.7247397999999521,0.7920807999980752,0,0.6430155000016384,0.7094290000022738,,,66.0,57.0,85311,60.0,
-152,152,90,20,2,322,7,,,,,,,,,,,session,4157.982685399998,144.0,2.0,72.0,0.01961572724417495,2,0.7470596000021033,0.8490559000019857,0,0.4282376999981352,0.577495400000771,0,0.7151303999999072,0.7651138000001083,,,48.0,60.0,85311,60.0,
152,152,0,20,3,323,1,,,,,,,,,,,session,4165.847768399999,174.0,2.0,72.0,0.01961572724417495,2,0.5960735000007844,0.7295492000012018,0,0.30995769999935874,0.375528900000063,0,0.34450310000102036,0.41130640000119456,,,63.0,72.0,85311,60.0,
152,-152,0,20,4,324,9,,,,,,,,,,,session,4173.970171500001,132.0,2.0,72.0,0.01961572724417495,2,0.8382009999986622,0.904438300000038,0,0.4114769999978307,0.5245117999984359,0,0.6457252000000153,0.8123780999994779,,,66.0,48.0,85311,60.0,
-152,-152,0,20,5,325,13,,,,,,,,,,,session,4181.932113300001,150.0,2.0,72.0,0.01961572724417495,2,0.842393599999923,0.9924549999996088,0,0.5090396000014152,0.559577399999398,0,0.6454785999994783,0.8289757999991707,,,69.0,72.0,85311,60.0,
-152,-152,-45,20,6,326,12,,,,,,,,,,,session,4190.615341699999,156.0,2.0,72.0,0.01961572724417495,2,0.9621939999997267,1.145520199999737,0,0.31228050000208896,0.4796033999991778,0,0.5214000999985728,0.6890879999991739,,,48.0,69.0,85311,60.0,
-152,-152,90,20,7,327,15,,,,,,,,,,,session,4198.914851400001,162.0,2.0,72.0,0.01961572724417495,2,0.8939578999998048,1.1094926000005216,0,0.24466150000080233,0.45916120000038063,0,0.3301576000012574,0.5122572000000218,,,66.0,51.0,85311,60.0,
-152,152,0,20,8,328,5,,,,,,,,,,,session,4207.747697300001,162.0,2.0,72.0,0.01961572724417495,2,0.8140430000021297,1.0141179999991436,0,0.3315390000025218,0.49785010000050534,0,0.4426984999990964,0.6259009999994305,,,60.0,48.0,85311,60.0,
152,-152,-45,20,9,329,8,,,,,,,,,,,session,4215.835221199999,168.0,2.0,72.0,0.01961572724417495,4,1.121050900001137,1.396228700003121,1,1.0244316999996954,1.2908301999996183,1,0.3450340999988839,0.5424132000007376,,,72.0,72.0,85311,60.0,
-152,152,-45,20,10,330,4,,,,,,,,,,,session,4225.712876900001,180.0,2.0,72.0,0.01961572724417495,2,1.1303065000029164,1.2802914000021701,0,0.241963600001327,0.44217160000334843,0,0.2445238000000245,0.4780726999997569,,,57.0,63.0,85311,60.0,
152,-152,45,20,11,331,10,,,,,,,,,,,session,4234.382065900001,138.0,2.0,72.0,0.01961572724417495,4,0.678423199999088,0.8954257999976107,6,0.7113482000022486,0.9116376000019955,1,0.3471488000031968,0.4971252000032109,,,60.0,48.0,85311,60.0,
-152,-152,45,20,12,332,14,,,,,,,,,,,session,4242.237839500001,180.0,2.0,72.0,0.01961572724417495,3,0.7401763000016217,0.9754037999991851,7,0.8808682999988378,1.0809888000003411,1,0.42961859999923036,0.5964120999997249,,,69.0,60.0,85311,60.0,
152,152,90,20,13,333,3,,,,,,,,,,,session,4252.1321407,150.0,2.0,72.0,0.01961572724417495,2,2.0485697999974946,2.231432599997788,0,0.4160437999998976,0.5826065999972343,0,0.43020890000116196,0.6967666999989888,,,66.0,48.0,85311,60.0,
152,-152,90,20,14,334,11,,,,,,,,,,,session,4261.487807699999,126.0,2.0,72.0,0.01961572724417495,2,0.9151710999976785,1.0651312999980291,0,0.34051220000037574,0.5189566000008199,0,0.5278858999990916,0.7484936000000744,,,72.0,60.0,85311,60.0,
152,152,-45,20,15,335,0,,,,,,,,,,,session,4269.583521600001,180.0,2.0,72.0,0.01961572724417495,2,0.8801812999990943,1.0624801000012667,0,0.3452588000000105,0.5117503000001307,0,3.4970595999984653,3.6645384000003105,,,66.0,57.0,85311,60.0,
152,152,0,21,0,336,1,,,,,,,,,,,session,4281.352885700002,156.0,2.0,72.0,0.01961572724417495,2,0.8284567999980936,0.9615487999981269,0,0.3525512999985949,0.5701873999969393,0,0.29186290000143345,0.5372523000005458,,,57.0,54.0,85311,60.0,
152,-152,90,21,1,337,11,,,,,,,,,,,session,4289.345095100001,144.0,2.0,72.0,0.01961572724417495,2,0.7962235999984841,0.9976799999967625,0,0.37153919999764184,0.537243299997499,0,0.41475229999923613,0.6646394000017608,,,48.0,51.0,85311,60.0,
