x,y,orientation,.thisRepN,.thisTrialN,.thisN,.thisIndex,.stepSize,.intensity,image_name,global_start_time,global_end_time,pressKey,pressRT,releaseRT,image_started,image_ended,name,globalTime,fixation_dur,stimulation_dur,post_fixation,opacity,locationResponse_pressKey,locationResponse_pressRT,locationResponse_releaseRT,orientationResponse_pressKey,orientationResponse_pressRT,orientationResponse_releaseRT,pasResponse_pressKey,pasResponse_pressRT,pasResponse_releaseRT,.response,finalOpacity,postLoc,postOri,ID,frameRate,
,,,0,-1,-1,0,0.0969100130080564,None,materials/instructions\1_welcome.png,2.561005000025034,59.216323900036514,0,56.51976769999601,56.65322269999888,0.060048499959520996,56.656610999954864,,,,,,,,,,,,,,,,,,,,98735,60.0,
,,,0,-1,-1,0,0.0969100130080564,None,materials/instructions\2_instruction.png,59.27339159999974,91.49166419997346,0,32.084723399952054,32.21598390000872,0.013193499995395541,32.223505300004035,,,,,,,,,,,,,,,,,,,,98735,60.0,
,,,0,-1,-1,0,0.0969100130080564,None,materials/instructions\3_location_demo.png,91.52813620003872,106.32014660001732,0,14.604941799887456,14.789999699918553,0.0178085999796167,14.803419500007294,,,,,,,,,,,,,,,,,,,,98735,60.0,
,,,0,-1,-1,0,0.0969100130080564,None,materials/instructions\4_orientation_demo.png,106.37776030006353,138.89401960000396,0,32.39552320004441,32.51411580003332,0.017457099980674684,32.519287200062536,,,,,,,,,,,,,,,,,,,,98735,60.0,
,,,0,-1,-1,0,0.0969100130080564,None,materials/instructions\5_pas_demo.png,138.94349139998667,158.0436283000745,0,18.965091399964876,19.098439799970947,0.020027299993671477,19.104987500002608,,,,,,,,,,,,,,,,,,,,98735,60.0,
77,77,45,0,-1,-1,0,0.0969100130080564,None,,,,,,,,,session,158.05887170007918,162.0,2.0,72.0,0.1,5,57.65566839999519,57.8055712999776,0,2.959855599910952,3.073448900016956,0,1.9680730999680236,2.0856943000108004,,,,,98735,60.0,
77,77,0,0,-1,-1,0,0.0969100130080564,None,,,,,,,,,session,225.14639220002573,162.0,2.0,72.0,0.1,5,5.988827699911781,6.124350799946114,0,1.2937992999795824,1.3962924000807106,6,4.245585100026801,4.358403700054623,,,,,98735,60.0,
77,77,-45,0,-1,-1,0,0.0969100130080564,None,,,,,,,,,session,241.11006650002673,180.0,2.0,72.0,0.1,5,0.9218389999587089,1.0535875000059605,1,1.382512400043197,1.4992101000389084,1,2.5671468999935314,2.683902099961415,,,,,98735,60.0,
77,77,90,0,-1,-1,0,0.0969100130080564,None,,,,,,,,,session,250.72959290002473,132.0,2.0,72.0,0.1,5,1.3873350999783725,1.5548269000137225,6,1.217550600063987,1.3834590000333264,1,2.319948000018485,2.4348833000985906,,,,,98735,60.0,
-77,77,-45,0,-1,-1,0,0.0969100130080564,None,,,,,,,,,session,259.68560179998167,150.0,2.0,72.0,0.1,2,0.8621679999632761,0.9956204999471083,1,1.5529589999932796,1.6861669999780133,1,3.835901299957186,3.987194399931468,,,,,98735,60.0,
,,,0,-1,-1,0,0.0969100130080564,None,materials/instructions\10_staircase_start.png,270.8603726000292,280.9849527999759,0,9.988748100004159,10.122466199914925,0.020028900005854666,10.13001850002911,,,,,,,,,,,,,,,,,,,,98735,60.0,
,,,0,0,-1,0,0.0969100130080564,0.1,,,,,,,,,staircase,280.99956160003785,156.0,2.0,72.0,0.1,,,,7,1.7111890000524,1.9077195000136271,,,,1,,,,98735,60.0,
,,,0,1,-1,0,0.0969100130080564,0.08,,,,,,,,,staircase,287.45935839996673,180.0,2.0,72.0,0.08,,,,7,0.3999247000319883,0.5822703000158072,,,,1,,,,98735,60.0,
,,,0,2,-1,0,0.0969100130080564,0.064,,,,,,,,,staircase,292.36136940005235,126.0,2.0,72.0,0.064,,,,7,0.3748211999190971,0.5752753999549896,,,,1,,,,98735,60.0,
,,,0,3,-1,0,0.0969100130080564,0.0512,,,,,,,,,staircase,296.34838890004903,150.0,2.0,72.0,0.0512,,,,6,1.2743044999660924,1.4243487999774516,,,,1,,,,98735,60.0,
,,,0,4,-1,0,0.0969100130080564,0.04096,,,,,,,,,staircase,301.5860989000648,168.0,2.0,72.0,0.04096,,,,7,1.0173311999533325,1.185291799949482,,,,1,,,,98735,60.0,
,,,0,5,-1,0,0.0969100130080564,0.032768000000000005,,,,,,,,,staircase,307.4133541000774,132.0,2.0,72.0,0.032768000000000005,,,,6,0.5554665999952704,0.7220602999441326,,,,1,,,,98735,60.0,
,,,0,6,-1,0,0.0969100130080564,0.026214400000000006,,,,,,,,,staircase,311.6613348000683,126.0,2.0,72.0,0.026214400000000006,,,,0,1.0864461999153718,1.2355317999608815,,,,1,,,,98735,60.0,
,,,0,7,-1,0,0.0969100130080564,0.020971520000000004,,,,,,,,,staircase,316.31313270004466,168.0,2.0,72.0,0.020971520000000004,,,,1,1.5714610000140965,1.7376787000102922,,,,1,,,,98735,60.0,
,,,0,8,-1,0,0.0969100130080564,0.016777216000000005,,,,,,,,,staircase,322.16709490003996,174.0,2.0,72.0,0.016777216000000005,,,,0,1.3256158999865875,1.4960335000650957,,,,1,,,,98735,60.0,
,,,0,9,-1,0,0.0969100130080564,0.013421772800000004,,,,,,,,,staircase,327.8795538999839,162.0,2.0,72.0,0.013421772800000004,,,,0,1.3870797000126913,1.5511424000142142,,,,0,,,,98735,60.0,
,,,0,10,-1,0,0.0969100130080564,0.016777216000000005,,,,,,,,,staircase,333.69447620003484,156.0,2.0,72.0,0.016777216000000005,,,,0,2.4572641999693587,2.624079199973494,,,,1,,,,98735,60.0,
,,,0,11,-1,0,0.0969100130080564,0.016777216000000005,,,,,,,,,staircase,340.2473556000041,156.0,2.0,72.0,0.016777216000000005,,,,7,2.3871655000839382,2.569949400029145,,,,0,,,,98735,60.0,
,,,0,12,-1,0,0.0969100130080564,0.020971520000000007,,,,,,,,,staircase,346.7356398999691,168.0,2.0,72.0,0.020971520000000007,,,,6,1.0144675999181345,1.164902999997139,,,,1,,,,98735,60.0,
,,,0,13,-1,0,0.0969100130080564,0.020971520000000007,,,,,,,,,staircase,352.6472742999904,138.0,2.0,72.0,0.020971520000000007,,,,0,1.7331878000404686,1.915672400034964,,,,1,,,,98735,60.0,
,,,0,14,-1,0,0.0969100130080564,0.016777216000000005,,,,,,,,,staircase,358.19425270007923,174.0,2.0,72.0,0.016777216000000005,,,,0,0.8019480999791995,0.9522149000549689,,,,0,,,,98735,60.0,
,,,0,15,-1,0,0.0969100130080564,0.020971520000000007,,,,,,,,,staircase,363.36508320004214,126.0,2.0,72.0,0.020971520000000007,,,,1,1.240083200042136,1.3893732000142336,,,,1,,,,98735,60.0,
,,,0,16,-1,0,0.0969100130080564,0.020971520000000007,,,,,,,,,staircase,368.16851640003733,174.0,2.0,72.0,0.020971520000000007,,,,0,1.2796289999969304,1.5043409999925643,,,,1,,,,98735,60.0,
,,,0,17,-1,0,0.0969100130080564,0.016777216000000005,,,,,,,,,staircase,374.2666456999723,180.0,2.0,72.0,0.016777216000000005,,,,6,2.727869899943471,2.8613023000070825,,,,1,,,,98735,60.0,
,,,0,18,-1,0,0.0969100130080564,0.016777216000000005,,,,,,,,,staircase,381.46149100002367,156.0,2.0,72.0,0.016777216000000005,,,,7,1.3246618999401107,1.5414421999594197,,,,1,,,,98735,60.0,
,,,0,19,-1,0,0.0969100130080564,0.013421772800000004,,,,,,,,,staircase,386.9167610000586,144.0,2.0,72.0,0.013421772800000004,,,,6,1.9818581999279559,2.1325389000121504,,,,0,,,,98735,60.0,
,,,0,20,-1,0,0.0969100130080564,0.016777216000000005,,,,,,,,,staircase,392.77378070005216,144.0,2.0,72.0,0.016777216000000005,,,,1,0.6327518000034615,0.8146711000008509,,,,1,,,,98735,60.0,
,,,0,21,-1,0,0.0969100130080564,0.016777216000000005,,,,,,,,,staircase,397.9448631000705,168.0,2.0,72.0,0.016777216000000005,,,,0,1.2060345000354573,1.439970700070262,,,,0,,,,98735,60.0,
,,,0,22,-1,0,0.0969100130080564,0.020971520000000007,,,,,,,,,staircase,403.4809646999929,162.0,2.0,72.0,0.020971520000000007,,,,0,1.2872432000003755,1.521701000048779,,,,1,,,,98735,60.0,
,,,0,23,-1,0,0.0969100130080564,0.020971520000000007,,,,,,,,,staircase,409.0175045999931,162.0,2.0,72.0,0.020971520000000007,,,,6,1.3358718000818044,1.535945300012827,,,,0,,,,98735,60.0,
,,,0,24,-1,0,0.0969100130080564,0.02621440000000001,,,,,,,,,staircase,414.57054760004394,174.0,2.0,72.0,0.02621440000000001,,,,7,1.2486713000107557,1.5146343000233173,,,,1,,,,98735,60.0,
,,,0,25,-1,0,0.0969100130080564,0.02621440000000001,,,,,,,,,staircase,420.84445750003215,132.0,2.0,72.0,0.02621440000000001,,,,0,1.0380044999765232,1.2871961999917403,,,,1,,,,98735,60.0,
,,,0,26,-1,0,0.0969100130080564,0.020971520000000007,,,,,,,,,staircase,425.6470006000018,138.0,2.0,72.0,0.020971520000000007,,,,0,0.011499800020828843,0.015596300014294684,,,,0,,,,98735,60.0,
,,,0,27,-1,0,0.0969100130080564,0.02621440000000001,,,,,,,,,staircase,429.29399010003544,174.0,2.0,72.0,0.02621440000000001,,,,7,1.7884924999671057,2.0379932000068948,,,,1,,,,98735,60.0,
,,,0,28,-1,0,0.0969100130080564,0.02621440000000001,,,,,,,,,staircase,435.5527375000529,138.0,2.0,72.0,0.02621440000000001,,,,1,0.9099671000149101,1.0825324000325054,,,,1,,,,98735,60.0,
,,,0,29,-1,0,0.0969100130080564,0.020971520000000007,,,,,,,,,staircase,440.8670519000152,156.0,2.0,72.0,0.020971520000000007,,,,6,0.7031380999833345,0.8852127999998629,,,,1,,,,98735,60.0,
,,,0,30,-1,0,0.0969100130080564,0.020971520000000007,,,,,,,,,staircase,445.67820439999923,126.0,2.0,72.0,0.020971520000000007,,,,6,1.2870320999063551,1.4371076999232173,,,,0,,,,98735,60.0,
,,,0,31,-1,0,0.0969100130080564,0.02621440000000001,,,,,,,,,staircase,450.53074539999943,150.0,2.0,72.0,0.02621440000000001,,,,6,1.5698224999941885,1.7368217000039294,,,,1,,,,98735,60.0,
,,,0,32,-1,0,0.0969100130080564,0.02621440000000001,,,,,,,,,staircase,456.0860907000024,162.0,2.0,72.0,0.02621440000000001,,,,0,1.4686059999512509,1.7018642999464646,,,,0,,,,98735,60.0,
,,,0,33,-1,0,0.0969100130080564,0.03276800000000001,,,,,,,,,staircase,462.08096769999247,174.0,2.0,72.0,0.03276800000000001,,,,6,0.8355827999766916,1.035656400024891,,,,1,,,,98735,60.0,
,,,0,34,-1,0,0.0969100130080564,0.03276800000000001,,,,,,,,,staircase,467.3455132000381,162.0,2.0,72.0,0.03276800000000001,,,,1,1.9657822999870405,2.114901000051759,,,,1,,,,98735,60.0,
,,,0,35,-1,0,0.0969100130080564,0.02621440000000001,,,,,,,,,staircase,473.4843623000197,144.0,2.0,72.0,0.02621440000000001,,,,0,1.5837696999078616,1.8006321999710053,,,,0,,,,98735,60.0,
,,,0,36,-1,0,0.0969100130080564,0.03276800000000001,,,,,,,,,staircase,479.00282589998096,156.0,2.0,72.0,0.03276800000000001,,,,6,0.5821510999230668,0.7322488999925554,,,,1,,,,98735,60.0,
,,,0,37,-1,0,0.0969100130080564,0.03276800000000001,,,,,,,,,staircase,484.1812166000018,132.0,2.0,72.0,0.03276800000000001,,,,6,0.6380926000420004,0.7892748999875039,,,,1,,,,98735,60.0,
,,,0,38,-1,0,0.0969100130080564,0.02621440000000001,,,,,,,,,staircase,488.5127589000622,150.0,2.0,72.0,0.02621440000000001,,,,7,1.01520970009733,1.2486971000907943,,,,1,,,,98735,60.0,
,,,0,39,-1,0,0.0969100130080564,0.02621440000000001,,,,,,,,,staircase,493.58120530005544,180.0,2.0,72.0,0.02621440000000001,,,,7,0.7981092999689281,0.9815378999337554,,,,1,,,,98735,60.0,
,,,0,40,-1,0,0.0969100130080564,0.020971520000000007,,,,,,,,,staircase,498.88519240007736,132.0,2.0,72.0,0.020971520000000007,,,,0,1.8958016000688076,2.0959109000395983,,,,0,,,,98735,60.0,
,,,0,41,-1,0,0.0969100130080564,0.02621440000000001,,,,,,,,,staircase,504.4979002000764,174.0,2.0,72.0,0.02621440000000001,,,,0,0.9035148000111803,1.136851100018248,,,,1,,,,98735,60.0,
,,,0,42,-1,0,0.0969100130080564,0.02621440000000001,,,,,,,,,staircase,510.26157009997405,168.0,2.0,72.0,0.02621440000000001,,,,1,1.7377055999822915,1.8871930000605062,,,,0,,,,98735,60.0,
,,,0,43,-1,0,0.0969100130080564,0.03276800000000001,,,,,,,,,staircase,516.2652259999886,150.0,2.0,72.0,0.03276800000000001,,,,6,0.47362259996589273,0.6552993999794126,,,,1,,,,98735,60.0,
,,,0,44,-1,0,0.0969100130080564,0.03276800000000001,,,,,,,,,staircase,520.7343218000606,180.0,2.0,72.0,0.03276800000000001,,,,0,1.4800847000442445,1.6740269000874832,,,,0,,,,98735,60.0,
,,,0,45,-1,0,0.0969100130080564,0.04096000000000002,,,,,,,,,staircase,526.7255432000384,144.0,2.0,72.0,0.04096000000000002,,,,6,0.7983566999901086,0.9474955999758095,,,,1,,,,98735,60.0,
,,,0,46,-1,0,0.0969100130080564,0.04096000000000002,,,,,,,,,staircase,531.711737100035,180.0,2.0,72.0,0.04096000000000002,,,,0,1.3891191000584513,1.6216631000861526,,,,1,,,,98735,60.0,
,,,0,47,-1,0,0.0969100130080564,0.03276800000000001,,,,,,,,,staircase,537.681418400025,162.0,2.0,72.0,0.03276800000000001,,,,0,2.489409900037572,2.6713395999977365,,,,1,,,,98735,60.0,
,,,0,48,-1,0,0.0969100130080564,0.03276800000000001,,,,,,,,,staircase,544.3693079000805,138.0,2.0,72.0,0.03276800000000001,,,,0,0.5963428999530151,0.7742870999500155,,,,1,,,,98735,60.0,
,,,0,49,-1,0,0.0969100130080564,0.02621440000000001,,,,,,,,,staircase,548.7583908999804,180.0,2.0,72.0,0.02621440000000001,,,,7,1.3058090000413358,1.5388148999772966,,,,1,,,,98735,60.0,
,,,0,50,-1,0,0.0969100130080564,0.02621440000000001,,,,,,,,,staircase,554.979258300038,174.0,2.0,72.0,0.02621440000000001,,,,1,1.2995059000095353,1.4472557000117376,,,,1,,,,98735,60.0,
,,,0,51,-1,0,0.0969100130080564,0.020971520000000007,,,,,,,,,staircase,560.6486690000165,132.0,2.0,72.0,0.020971520000000007,,,,1,1.143324099946767,1.2934607999632135,,,,0,,,,98735,60.0,
,,,0,52,-1,0,0.0969100130080564,0.02621440000000001,,,,,,,,,staircase,565.454515999998,144.0,2.0,72.0,0.02621440000000001,,,,6,0.6039917999878526,0.770951799931936,,,,1,,,,98735,60.0,
,,,0,53,-1,0,0.0969100130080564,0.02621440000000001,,,,,,,,,staircase,569.9473577999743,138.0,2.0,72.0,0.02621440000000001,,,,6,0.5152589000063017,0.6652727999025956,,,,1,,,,98735,60.0,
,,,0,54,-1,0,0.0969100130080564,0.020971520000000007,,,,,,,,,staircase,574.7953588999808,126.0,2.0,72.0,0.020971520000000007,,,,0,1.1531413999618962,1.3063253000145778,,,,0,,,,98735,60.0,
,,,0,55,-1,0,0.0969100130080564,0.02621440000000001,,,,,,,,,staircase,579.5162296000635,180.0,2.0,72.0,0.02621440000000001,,,,6,0.8018680999521166,0.9686954999342561,,,,1,,,,98735,60.0,
,,,0,56,-1,0,0.0969100130080564,0.02621440000000001,,,,,,,,,staircase,584.7995413000463,156.0,2.0,72.0,0.02621440000000001,,,,7,1.621486600022763,1.8220510000828654,,,,1,,,,98735,60.0,
,,,0,57,-1,0,0.0969100130080564,0.020971520000000007,,,,,,,,,staircase,590.5376619000454,174.0,2.0,72.0,0.020971520000000007,,,,1,3.2306559000862762,3.348505700007081,,,,0,,,,98735,60.0,
,,,0,58,-1,0,0.0969100130080564,0.02621440000000001,,,,,,,,,staircase,598.6142505999887,156.0,2.0,72.0,0.02621440000000001,,,,1,1.2537127000978217,1.388942199992016,,,,0,,,,98735,60.0,
,,,0,59,-1,0,0.0969100130080564,0.03276800000000001,,,,,,,,,staircase,603.932924099965,144.0,2.0,72.0,0.03276800000000001,,,,1,1.9537572000408545,2.0871945000253618,,,,1,,,,98735,60.0,
,,,0,60,-1,0,0.0969100130080564,0.03276800000000001,,,,,,,,,staircase,609.7522649000166,156.0,2.0,72.0,0.03276800000000001,,,,6,2.1874054999789223,2.320663299993612,,,,0,,,,98735,60.0,
,,,0,61,-1,0,0.0969100130080564,0.04096000000000002,,,,,,,,,staircase,615.9976717999671,126.0,2.0,72.0,0.04096000000000002,,,,7,1.457320100045763,1.6752143000485376,,,,1,,,,98735,60.0,
,,,0,62,-1,0,0.0969100130080564,0.04096000000000002,,,,,,,,,staircase,621.1973469000077,150.0,2.0,72.0,0.04096000000000002,,,,7,0.6954052000073716,0.8789174999110401,,,,1,,,,98735,60.0,
,,,0,63,-1,0,0.0969100130080564,0.03276800000000001,,,,,,,,,staircase,625.8983825000469,168.0,2.0,72.0,0.03276800000000001,,,,1,0.8712049999739975,1.0537253000074998,,,,1,,,,98735,60.0,
,,,0,64,-1,0,0.0969100130080564,0.03276800000000001,,,,,,,,,staircase,631.0690528000705,162.0,2.0,72.0,0.03276800000000001,,,,1,0.8874471999006346,1.020309199928306,,,,1,,,,98735,60.0,
,,,0,65,-1,0,0.0969100130080564,0.02621440000000001,,,,,,,,,staircase,636.1061213000212,162.0,2.0,72.0,0.02621440000000001,,,,6,0.5128249000990763,0.6795074000256136,,,,1,,,,98735,60.0,
,,,0,66,-1,0,0.0969100130080564,0.02621440000000001,,,,,,,,,staircase,641.3955161999911,168.0,2.0,72.0,0.02621440000000001,,,,0,2.0188135999487713,2.2516109000425786,,,,0,,,,98735,60.0,
,,,0,67,-1,0,0.0969100130080564,0.03276800000000001,,,,,,,,,staircase,647.7662399000255,150.0,2.0,72.0,0.03276800000000001,,,,7,1.9042501000221819,2.1356699999887496,,,,1,,,,98735,60.0,
,,,0,68,-1,0,0.0969100130080564,0.03276800000000001,,,,,,,,,staircase,653.7223906000145,174.0,2.0,72.0,0.03276800000000001,,,,0,0.8884038000833243,1.0550415000179783,,,,1,,,,98735,60.0,
,,,0,69,-1,0,0.0969100130080564,0.02621440000000001,,,,,,,,,staircase,659.0314178999979,174.0,2.0,72.0,0.02621440000000001,,,,1,0.7712521000066772,0.9045567999128252,,,,1,,,,98735,60.0,
,,,0,-1,-1,0,,,materials/instructions\11_session_start.png,664.5927051000763,685.8625741000287,0,21.118133199983276,21.268022499978542,0.02329240005929023,21.275326800066978,,,,,,,,,,,,,,,,,,,,98735,60.0,
,,,0,-1,-1,0,,,,,,,,,,,,,,,,,,,,,,,,,,,0.029327360000000014,,,98735,60.0,
77,77,45,0,0,0,2,,,,,,,,,,,session,685.8800945000257,162.0,2.0,72.0,0.029327360000000014,5,1.0453562000766397,1.227984600001946,7,1.2211206998908892,1.3549626999301836,1,2.0208360999822617,2.1709320000372827,,,48.0,63.0,98735,60.0,
-77,-77,45,0,1,1,14,,,,,,,,,,,session,696.6374801000347,168.0,2.0,72.0,0.029327360000000014,3,0.4775437000207603,0.6612691000336781,7,0.3679697000188753,0.5678804999915883,1,0.33679179998580366,0.4716082999948412,,,69.0,60.0,98735,60.0,
-77,77,0,0,2,2,5,,,,,,,,,,,session,704.7318496999796,132.0,2.0,72.0,0.029327360000000014,2,0.33745269989594817,0.520818299963139,0,0.9476036999840289,1.0961368000134826,1,0.4298613000428304,0.5966126000275835,,,60.0,51.0,98735,60.0,
77,77,0,0,3,3,1,,,,,,,,,,,session,712.4824281000765,144.0,2.0,72.0,0.029327360000000014,5,1.150024399976246,1.3333565999055281,1,0.8241683999076486,0.9753390999976546,1,0.4039839000906795,0.5540183000266552,,,72.0,51.0,98735,60.0,
-77,-77,90,0,4,4,15,,,,,,,,,,,session,721.239279899979,126.0,2.0,72.0,0.029327360000000014,3,0.9127051000250503,1.1079553000163287,6,1.0495019000954926,1.215995200094767,1,0.8788318999577314,1.0453304999973625,,,51.0,54.0,98735,60.0,
-77,77,45,0,5,5,6,,,,,,,,,,,session,730.0142047000118,144.0,2.0,72.0,0.029327360000000014,2,2.133013700018637,2.2831686000572518,0,0.2555939999874681,0.3874737999867648,0,0.3045486999908462,0.4691402999451384,,,51.0,66.0,98735,60.0,
77,77,90,0,6,6,3,,,,,,,,,,,session,738.9679510999704,168.0,2.0,72.0,0.029327360000000014,5,0.7343421999830753,0.9355810999404639,6,0.7010614000027999,0.9006844999967143,1,0.41376019991002977,0.608606299967505,,,63.0,60.0,98735,60.0,
77,-77,0,0,7,7,9,,,,,,,,,,,session,747.7293415999738,132.0,2.0,72.0,0.029327360000000014,4,0.9631732000270858,1.145570500055328,0,0.8887525999452919,1.018595999921672,1,1.0495232000248507,1.2178189000114799,,,54.0,51.0,98735,60.0,
77,-77,-45,0,8,8,8,,,,,,,,,,,session,756.8681530000176,162.0,2.0,72.0,0.029327360000000014,4,0.7332744000013918,0.9167985999956727,0,1.3653537000063807,1.5320109000895172,1,2.235989300068468,2.3861002000048757,,,51.0,57.0,98735,60.0,
-77,77,90,0,9,9,7,,,,,,,,,,,session,767.6593241000082,168.0,2.0,72.0,0.029327360000000014,2,1.7101071999641135,1.8607515000039712,6,1.7226260000606999,1.8894099000608549,0,0.40720790007617325,0.5740472000325099,,,51.0,54.0,98735,60.0,
77,-77,45,0,10,10,10,,,,,,,,,,,session,778.5660992000485,132.0,2.0,72.0,0.029327360000000014,4,0.6568656000308692,0.8237094000214711,6,0.6568674000445753,0.8393570999614894,6,1.4464124999940395,1.5959224000107497,,,69.0,54.0,98735,60.0,
-77,77,-45,0,11,11,4,,,,,,,,,,,session,787.5059034000151,180.0,2.0,72.0,0.029327360000000014,5,1.4275855000596493,1.6079724000301212,1,0.8014457999961451,0.9388493999140337,0,0.7794839000562206,0.9298300000373274,,,57.0,54.0,98735,60.0,
-77,-77,0,0,12,12,13,,,,,,,,,,,session,797.6518239000579,156.0,2.0,72.0,0.029327360000000014,3,0.36504890001378953,0.5497160000959411,0,0.8701990999979898,1.053718899958767,1,0.9678691999288276,1.102380699943751,,,48.0,54.0,98735,60.0,
77,77,-45,0,13,13,0,,,,,,,,,,,session,806.1224180000136,156.0,2.0,72.0,0.029327360000000014,5,0.7687292000046,0.9716558000072837,1,1.9244061999488622,2.057548000011593,1,0.48131339997053146,0.6316078000236303,,,54.0,48.0,98735,60.0,
77,-77,90,0,14,14,11,,,,,,,,,,,session,815.5519537000218,168.0,2.0,72.0,0.029327360000000014,5,1.2236243999795988,1.4058857000200078,1,0.6832599999615923,0.8668420999310911,0,1.0015910000074655,1.201743199955672,,,72.0,66.0,98735,60.0,
-77,-77,-45,0,15,15,12,,,,,,,,,,,session,825.5843667000299,132.0,2.0,72.0,0.029327360000000014,2,1.4528181999921799,1.6035104000475258,7,0.4364350000396371,0.6186194000765681,0,0.2800161000341177,0.4151324999984354,,,69.0,72.0,98735,60.0,
77,77,-45,1,0,16,0,,,,,,,,,,,session,834.2092453000369,138.0,2.0,72.0,0.029327360000000014,5,0.8787752999924123,1.048187299980782,1,1.8390987999737263,2.0535260000033304,1,1.5970318000763655,1.7798714999807999,,,57.0,48.0,98735,60.0,
77,77,0,1,1,17,1,,,,,,,,,,,session,845.1997359000379,150.0,2.0,72.0,0.029327360000000014,5,0.7544584999559447,0.9211723000044003,0,0.820951999980025,0.9710175000363961,6,1.412444100016728,1.5804330999962986,,,66.0,57.0,98735,60.0,
77,77,45,1,2,18,2,,,,,,,,,,,session,854.6743442000588,180.0,2.0,72.0,0.029327360000000014,5,0.827598899952136,0.9611722999252379,7,0.8858617000514641,1.070358800003305,6,0.4652661000145599,0.6494913001079112,,,57.0,60.0,98735,60.0,
77,-77,0,1,3,19,9,,,,,,,,,,,session,864.316332400078,138.0,2.0,72.0,0.029327360000000014,4,0.39785199996549636,0.56379109993577,0,0.5518264999845996,0.7384313999209553,6,0.8675433000316843,1.0010369999799877,,,54.0,69.0,98735,60.0,
77,-77,0,1,3,19,9,,,materials/instructions\12_break.png,872.4498146000551,890.3147636000067,0,17.695758200017735,17.86282260005828,0.021360900020226836,17.870444100000896,,,,,,,,,,,,,,,,,,,,98735,60.0,
77,-77,90,1,4,20,11,,,,,,,,,,,session,890.3302689000266,144.0,2.0,72.0,0.029327360000000014,5,1.724070299998857,1.9240969000384212,0,0.23774969996884465,0.45245470001827925,0,0.3024846001062542,0.47000180010218173,,,54.0,60.0,98735,60.0,
-77,-77,0,1,5,21,13,,,,,,,,,,,session,898.9235816000728,156.0,2.0,72.0,0.029327360000000014,3,0.5297034999821335,0.7295020000310615,0,0.5509850000962615,0.7347879000008106,6,0.5158337999600917,0.6502084999810904,,,51.0,54.0,98735,60.0,
-77,-77,90,1,6,22,15,,,,,,,,,,,session,907.3830707999878,132.0,2.0,72.0,0.029327360000000014,4,1.3174463000614196,1.533481299993582,1,0.15314249997027218,0.3533292000647634,0,0.5878857999341562,0.7379497999791056,,,60.0,48.0,98735,60.0,
-77,-77,-45,1,7,23,12,,,,,,,,,,,session,915.4537535000127,150.0,2.0,72.0,0.029327360000000014,3,0.48480099998414516,0.6664061000337824,1,0.9865947999060154,1.1868574999971315,1,0.31520960002671927,0.48738199996296316,,,63.0,72.0,98735,60.0,
-77,77,90,1,8,24,7,,,,,,,,,,,session,924.0356831999961,162.0,2.0,72.0,0.029327360000000014,2,1.5438986999215558,1.6939166999654844,0,0.3846838000463322,0.5670284000225365,0,0.3498682000208646,0.4988769000628963,,,69.0,66.0,98735,60.0,
-77,-77,45,1,9,25,14,,,,,,,,,,,session,933.6188194999704,150.0,2.0,72.0,0.029327360000000014,3,0.3335497999796644,0.48381380003411323,7,0.8359185999725014,0.9691044999053702,1,0.6006941000232473,0.7506659000646323,,,54.0,51.0,98735,60.0,
77,-77,-45,1,10,26,8,,,,,,,,,,,session,941.5234893000452,150.0,2.0,72.0,0.029327360000000014,5,3.017015299992636,3.1877948999172077,6,0.011535999947227538,0.10035039996728301,0,0.731841699918732,0.9156991000054404,,,57.0,48.0,98735,60.0,
77,77,90,1,11,27,3,,,,,,,,,,,session,951.4501679000678,150.0,2.0,72.0,0.029327360000000014,5,0.9837230000412092,1.1338888000464067,6,1.2869689000071958,1.4203751999884844,6,1.1193580999970436,1.269766699988395,,,54.0,57.0,98735,60.0,
-77,77,45,1,12,28,6,,,,,,,,,,,session,961.071930999984,138.0,2.0,72.0,0.029327360000000014,2,0.38392669998575,0.5674713999032974,7,1.8242737000109628,2.0127572999335825,1,1.1666583999758586,1.3869676999747753,,,66.0,57.0,98735,60.0,
-77,77,0,1,13,29,5,,,,,,,,,,,session,970.8366360999644,168.0,2.0,72.0,0.029327360000000014,2,0.39770840003620833,0.5827132000122219,0,1.2696753999916837,1.4865350000327453,6,2.5511473000515252,2.7179868000093848,,,48.0,57.0,98735,60.0,
-77,77,-45,1,14,30,4,,,,,,,,,,,session,981.6189962000353,174.0,2.0,72.0,0.029327360000000014,2,0.16834380000364035,0.3698939000023529,1,2.5723506999202073,2.7649371998850256,1,4.486950100050308,4.6538681000238284,,,54.0,72.0,98735,60.0,
77,-77,45,1,15,31,10,,,,,,,,,,,session,995.8532058000565,132.0,2.0,72.0,0.029327360000000014,5,1.3351225999649614,1.485449600033462,6,1.6531688999384642,1.7875093999318779,0,3.536429699975997,3.7195731999818236,,,48.0,66.0,98735,60.0,
77,77,90,2,0,32,3,,,,,,,,,,,session,1008.4074706999818,168.0,2.0,72.0,0.029327360000000014,5,0.8937845000764355,1.028173000086099,6,0.5036756999325007,0.6534687998937443,6,1.73661650007125,1.921936700004153,,,51.0,51.0,98735,60.0,
-77,77,0,2,1,33,5,,,,,,,,,,,session,1018.1718047000468,126.0,2.0,72.0,0.029327360000000014,2,0.44856479996815324,0.6810598999727517,0,0.5201731000561267,0.7196739000501111,1,0.4505512999603525,0.6320132999680936,,,54.0,72.0,98735,60.0,
-77,-77,-45,2,2,34,12,,,,,,,,,,,session,1025.8693221000722,144.0,2.0,72.0,0.029327360000000014,3,0.3986825000029057,0.598627100000158,1,0.7455402000341564,0.9295660000061616,1,1.2203821999719366,1.3944593999767676,,,60.0,54.0,98735,60.0,
77,-77,90,2,3,35,11,,,,,,,,,,,session,1034.5351194000104,150.0,2.0,72.0,0.029327360000000014,4,0.7936680000275373,0.9936626000562683,6,1.2810704000294209,1.4470519000897184,1,1.4672131000552326,1.7009282000362873,,,51.0,69.0,98735,60.0,
77,77,45,2,4,36,2,,,,,,,,,,,session,1045.083757400047,132.0,2.0,72.0,0.029327360000000014,5,1.6708559999242425,1.8218886000104249,0,0.905284299980849,1.1567928000586107,0,0.011140200076624751,0.013054899987764657,,,54.0,60.0,98735,60.0,
77,77,0,2,5,37,1,,,,,,,,,,,session,1053.6179723000387,150.0,2.0,72.0,0.029327360000000014,5,0.89909910003189,1.0493242000229657,0,1.7858110000379384,1.9688141000224277,7,1.1660932999802753,1.349366599926725,,,54.0,51.0,98735,60.0,
-77,77,-45,2,6,38,4,,,,,,,,,,,session,1064.1212649999652,150.0,2.0,72.0,0.029327360000000014,2,0.833172999904491,0.9999095000093803,1,1.3032138000708073,1.4866362999891862,6,2.3013206999748945,2.4846004999708384,,,51.0,63.0,98735,60.0,
77,-77,-45,2,7,39,8,,,,,,,,,,,session,1074.9579932000488,162.0,2.0,72.0,0.029327360000000014,4,0.4731708999024704,0.6280582000035793,1,5.118417999939993,5.268159399973229,6,2.5285157000180334,2.6954351000022143,,,54.0,66.0,98735,60.0,
77,-77,-45,2,7,39,8,,,materials/instructions\12_break.png,1090.1491888000164,1133.2500133999856,0,42.98184659995604,43.098759299959056,0.020599300041794777,43.106460400042124,,,,,,,,,,,,,,,,,,,,98735,60.0,
77,-77,0,2,8,40,9,,,,,,,,,,,session,1133.2661192000378,174.0,2.0,72.0,0.029327360000000014,4,0.5787155000725761,0.7287122000707313,0,0.7048772999551147,0.8744007999775931,1,1.6692172000184655,1.8172139000380412,,,51.0,66.0,98735,60.0,
-77,77,45,2,9,41,6,,,,,,,,,,,session,1142.992407700047,132.0,2.0,72.0,0.029327360000000014,2,0.011037499993108213,0.012977899983525276,6,1.1870283999014646,1.3686538999900222,1,0.3157300000311807,0.4654024000046775,,,51.0,60.0,98735,60.0,
-77,-77,0,2,10,42,13,,,,,,,,,,,session,1151.0154490000568,150.0,2.0,72.0,0.029327360000000014,3,1.3192684000823647,1.4857842000201344,6,0.3735908000962809,0.5237724001053721,1,1.0535678999731317,1.2223927000304684,,,57.0,48.0,98735,60.0,
77,-77,45,2,11,43,10,,,,,,,,,,,session,1159.9413039999781,132.0,2.0,72.0,0.029327360000000014,4,0.36568520008586347,0.5669023999944329,7,0.8525348999537528,1.070108399959281,6,1.8319873000727966,1.9818184999749064,,,72.0,54.0,98735,60.0,
-77,-77,45,2,12,44,14,,,,,,,,,,,session,1169.3212951000314,138.0,2.0,72.0,0.029327360000000014,3,0.4882067000726238,0.6364006000803784,7,1.5167243999894708,1.683944599935785,1,1.935600099968724,2.1366613999707624,,,69.0,60.0,98735,60.0,
-77,-77,90,2,13,45,15,,,,,,,,,,,session,1179.6876946999691,138.0,2.0,72.0,0.029327360000000014,5,1.869972400018014,2.019393500057049,6,0.32393820001743734,0.45777540002018213,0,0.26829349994659424,0.4525665999390185,,,57.0,51.0,98735,60.0,
-77,77,90,2,14,46,7,,,,,,,,,,,session,1188.1608558000298,156.0,2.0,72.0,0.029327360000000014,2,0.41063310008030385,0.5611370999831706,6,0.917005000053905,1.0672947000712156,6,2.191268900060095,2.3082917000865564,,,72.0,54.0,98735,60.0,
77,77,-45,2,15,47,0,,,,,,,,,,,session,1198.7524348000297,162.0,2.0,72.0,0.029327360000000014,5,0.9755370999919251,1.1424198999302462,1,2.0909184999763966,2.325787900015712,1,1.1377471999730915,1.3881997999269515,,,54.0,60.0,98735,60.0,
77,-77,0,3,0,48,9,,,,,,,,,,,session,1209.6609898000024,126.0,2.0,72.0,0.029327360000000014,4,0.33160110004246235,0.511697500012815,6,1.9358452999731526,2.1211394999409094,1,1.8668976000044495,2.0654703999171034,,,69.0,69.0,98735,60.0,
-77,77,45,3,1,49,6,,,,,,,,,,,session,1220.8856077999808,150.0,2.0,72.0,0.029327360000000014,5,2.0170984000433236,2.1679301001131535,0,0.3392423999030143,0.5714552999706939,0,0.49845299997832626,0.7487075999379158,,,60.0,57.0,98735,60.0,
77,-77,45,3,2,50,10,,,,,,,,,,,session,1230.275279100053,138.0,2.0,72.0,0.029327360000000014,4,1.3671178000513464,1.5145862000063062,0,0.4676599999656901,0.6843054000055417,0,0.2835925000254065,0.466973900096491,,,60.0,54.0,98735,60.0,
-77,77,0,3,3,51,5,,,,,,,,,,,session,1238.8999280000571,174.0,2.0,72.0,0.029327360000000014,2,1.2874335999367759,1.4542208999628201,0,0.5401437999680638,0.7269449000013992,1,1.0180630999384448,1.2008634000085294,,,48.0,72.0,98735,60.0,
-77,-77,0,3,4,52,13,,,,,,,,,,,session,1248.6223169000586,156.0,2.0,72.0,0.029327360000000014,3,2.318484300049022,2.5343505000928417,6,0.5369070000015199,0.7139769999776036,0,1.9860712999943644,2.221966499928385,,,57.0,54.0,98735,60.0,
-77,77,-45,3,5,53,4,,,,,,,,,,,session,1260.021190600004,174.0,2.0,72.0,0.029327360000000014,5,3.709030400030315,3.8592235000105575,0,0.40633509994950145,0.5884795999154449,0,0.6338201999897137,0.7514593999367207,,,66.0,72.0,98735,60.0,
77,77,-45,3,6,54,0,,,,,,,,,,,session,1271.8745033000596,150.0,2.0,72.0,0.029327360000000014,5,0.38942270004190505,0.5873172000283375,1,1.4596769000636414,1.6309800000162795,6,1.8644162999698892,2.0645918999798596,,,60.0,51.0,98735,60.0,
-77,-77,45,3,7,55,14,,,,,,,,,,,session,1281.9668747000396,162.0,2.0,72.0,0.029327360000000014,3,1.280073000001721,1.5970548000186682,1,1.4717681999318302,1.6543000999372452,0,0.33064940001349896,0.5141333000501618,,,54.0,72.0,98735,60.0,
-77,77,90,3,8,56,7,,,,,,,,,,,session,1291.9889785000123,138.0,2.0,72.0,0.029327360000000014,2,0.3678420999785885,0.5511824000859633,6,0.5374829999636859,0.7210661999415606,6,0.8641838999465108,1.0359264999860898,,,54.0,51.0,98735,60.0,
77,77,0,3,9,57,1,,,,,,,,,,,session,1299.8211607000558,150.0,2.0,72.0,0.029327360000000014,3,4.051845300011337,4.20202430000063,1,2.2025699999649078,2.3514943999471143,0,1.1991484999889508,1.382637600065209,,,63.0,69.0,98735,60.0,
77,-77,90,3,10,58,11,,,,,,,,,,,session,1314.305802399991,168.0,2.0,72.0,0.029327360000000014,4,0.5538576000835747,0.7356080000754446,6,1.1418436000822112,1.2992341000353917,1,0.8007256999844685,0.9513909999513999,,,57.0,54.0,98735,60.0,
-77,-77,-45,3,11,59,12,,,,,,,,,,,session,1323.3880485000554,132.0,2.0,72.0,0.029327360000000014,3,1.835645499988459,2.0024348999140784,1,5.306157000013627,5.456221399945207,0,0.4183542000828311,0.5851603000191972,,,69.0,69.0,98735,60.0,
-77,-77,-45,3,11,59,12,,,materials/instructions\12_break.png,1337.4891475000186,1384.2227871000068,0,46.581534199998714,46.73149099992588,0.018714600009843707,46.73916019999888,,,,,,,,,,,,,,,,,,,,98735,60.0,
-77,-77,90,3,12,60,15,,,,,,,,,,,session,1384.2381118000485,126.0,2.0,72.0,0.029327360000000014,3,0.15414330002386123,0.32815600000321865,6,0.3996908999979496,0.5661842999979854,1,0.29827380005735904,0.4465756000718102,,,72.0,51.0,98735,60.0,
77,77,90,3,13,61,3,,,,,,,,,,,session,1391.2852391999913,126.0,2.0,72.0,0.029327360000000014,5,0.3355435999110341,0.5190201998921111,6,0.28293079999275506,0.4493989000329748,1,1.3154652999946848,1.499391800025478,,,72.0,69.0,98735,60.0,
77,77,45,3,14,62,2,,,,,,,,,,,session,1399.6708324999781,162.0,2.0,72.0,0.029327360000000014,5,0.18666120001580566,0.3868492000037804,7,0.7362049999646842,0.9539989000186324,6,0.4654402000596747,0.6484904000535607,,,57.0,54.0,98735,60.0,
77,-77,-45,3,15,63,8,,,,,,,,,,,session,1407.6775657000253,150.0,2.0,72.0,0.029327360000000014,4,0.011598799959756434,0.1682800999842584,7,0.6812915001064539,0.8478671000339091,1,0.3001057000365108,0.46764429996255785,,,66.0,66.0,98735,60.0,
-77,77,0,4,0,64,5,,,,,,,,,,,session,1415.9391072000144,168.0,2.0,72.0,0.029327360000000014,2,0.5366505000274628,0.6868540999712422,0,0.7331384000135586,0.8993531999876723,6,1.772536400007084,1.989854700048454,,,51.0,51.0,98735,60.0,
77,77,45,4,1,65,2,,,,,,,,,,,session,1425.4591344000073,132.0,2.0,72.0,0.029327360000000014,4,1.7337079999269918,1.9170621000230312,1,0.3461162999738008,0.553648000000976,0,1.9470868000062183,2.1281148999696597,,,54.0,54.0,98735,60.0,
-77,-77,45,4,2,66,14,,,,,,,,,,,session,1435.5174831000622,162.0,2.0,72.0,0.029327360000000014,2,2.0988061000825837,2.264775300049223,0,0.10275850002653897,0.33662469999399036,0,0.012111500022001565,0.013997099944390357,,,48.0,66.0,98735,60.0,
77,77,90,4,3,67,3,,,,,,,,,,,session,1444.1968819000758,126.0,2.0,72.0,0.029327360000000014,5,0.8328329999931157,1.0160738999256864,6,0.26881220005452633,0.4525160000193864,1,0.23595130001194775,0.4337539999978617,,,57.0,60.0,98735,60.0,
77,-77,-45,4,4,68,8,,,,,,,,,,,session,1451.5938818000723,132.0,2.0,72.0,0.029327360000000014,2,1.8276757000712678,1.9778579000849277,0,0.011489800061099231,0.013366800034418702,0,1.2633546000579372,1.46340600005351,,,51.0,51.0,98735,60.0,
-77,-77,-45,4,5,69,12,,,,,,,,,,,session,1460.7696246000705,126.0,2.0,72.0,0.029327360000000014,3,0.3524850000394508,0.5526639999588951,1,1.485610100091435,1.6542383000487462,1,0.6982216000324115,0.8648997000418603,,,69.0,51.0,98735,60.0,
77,-77,90,4,6,70,11,,,,,,,,,,,session,1469.3901280000573,156.0,2.0,72.0,0.029327360000000014,2,1.1533478000201285,1.335112400003709,1,0.011764600058086216,0.013633800088427961,0,0.562272600014694,0.7430438000010327,,,54.0,66.0,98735,60.0,
77,-77,0,4,7,71,9,,,,,,,,,,,session,1477.5363924000412,138.0,2.0,72.0,0.029327360000000014,4,0.41332209995016456,0.7801802000030875,0,1.1094243000261486,1.3094983999617398,6,0.472332900040783,0.6372531999368221,,,57.0,69.0,98735,60.0,
-77,77,45,4,8,72,6,,,,,,,,,,,session,1486.2388775000582,174.0,2.0,72.0,0.029327360000000014,2,0.5352138000307605,0.7036742999916896,7,1.6555472000036389,1.8724063000408933,0,0.7005862999940291,1.2503316000802442,,,63.0,66.0,98735,60.0,
77,-77,45,4,9,73,10,,,,,,,,,,,session,1496.5604059000034,138.0,2.0,72.0,0.029327360000000014,4,1.262286200071685,1.4419421000638977,7,1.7509053000248969,1.9187945999437943,1,0.2511485000140965,0.4324839999899268,,,60.0,69.0,98735,60.0,
77,77,0,4,10,74,1,,,,,,,,,,,session,1506.7702470000368,132.0,2.0,72.0,0.029327360000000014,5,1.1680532000027597,1.3681667000055313,0,1.037108700023964,1.2372568000573665,6,2.0545277999481186,2.1879513999447227,,,51.0,60.0,98735,60.0,
-77,-77,90,4,11,75,15,,,,,,,,,,,session,1517.059940300067,126.0,2.0,72.0,0.029327360000000014,5,0.8588918999303132,1.0137830999447033,1,0.01231959997676313,0.014209300046786666,0,0.30059219989925623,0.5358839998953044,,,63.0,72.0,98735,60.0,
77,77,-45,4,12,76,0,,,,,,,,,,,session,1524.6228056000546,174.0,2.0,72.0,0.029327360000000014,5,2.1822022000560537,2.3489678000332788,1,0.011876300093717873,0.01378210005350411,1,0.4467294999631122,0.5971388999605551,,,48.0,72.0,98735,60.0,
-77,77,-45,4,13,77,4,,,,,,,,,,,session,1533.9562973000575,162.0,2.0,72.0,0.029327360000000014,2,0.6279510000022128,0.7780453000450507,1,1.1890741999959573,1.3892347998917103,1,0.4833632999798283,0.6836431999690831,,,57.0,57.0,98735,60.0,
-77,-77,0,4,14,78,13,,,,,,,,,,,session,1542.8730954000494,138.0,2.0,72.0,0.029327360000000014,3,0.4830077999504283,0.5329159999964759,0,0.9227066999301314,1.0908019999042153,1,1.0839940001023933,1.2835247000912204,,,57.0,51.0,98735,60.0,
-77,77,90,4,15,79,7,,,,,,,,,,,session,1551.737945000059,162.0,2.0,72.0,0.029327360000000014,2,2.137303699972108,2.3200859000207856,1,0.8694473000941798,1.1864713000832126,0,0.4397752999793738,0.622452300041914,,,54.0,48.0,98735,60.0,
-77,77,90,4,15,79,7,,,materials/instructions\12_break.png,1561.7394210000057,1597.2008741999744,0,35.276262899977155,35.45958949998021,0.022522800019942224,35.46732380008325,,,,,,,,,,,,,,,,,,,,98735,60.0,
-77,-77,45,5,0,80,14,,,,,,,,,,,session,1597.2166017000563,138.0,2.0,72.0,0.029327360000000014,3,0.39713519997894764,0.5472232999745756,7,1.240936900023371,1.3885266999714077,6,0.32012739998754114,0.46942600002512336,,,72.0,66.0,98735,60.0,
-77,77,90,5,1,81,7,,,,,,,,,,,session,1605.6773321999935,132.0,2.0,72.0,0.029327360000000014,2,0.24534329993184656,0.4120026999153197,6,0.5179925999836996,0.6847251000581309,1,1.1008477999130264,1.2831678999355063,,,48.0,51.0,98735,60.0,
-77,77,45,5,2,82,6,,,,,,,,,,,session,1613.5381104999688,126.0,2.0,72.0,0.029327360000000014,2,0.4334330999990925,0.5672910999273881,7,1.3204493999946862,1.4871462000301108,1,1.354084699996747,1.5042111000511795,,,57.0,60.0,98735,60.0,
77,-77,90,5,3,83,11,,,,,,,,,,,session,1622.6230263999896,162.0,2.0,72.0,0.029327360000000014,4,0.7660310999490321,0.9512631000252441,6,0.5035075000487268,0.6709441000130028,1,4.625447000027634,4.778618899988942,,,48.0,57.0,98735,60.0,
-77,-77,0,5,4,84,13,,,,,,,,,,,session,1634.9193513999926,150.0,2.0,72.0,0.029327360000000014,3,0.01234469993505627,0.524935599998571,0,0.8017736000474542,0.96844389999751,6,0.5532115999376401,0.7027470000321046,,,48.0,57.0,98735,60.0,
-77,77,-45,5,5,85,4,,,,,,,,,,,session,1642.8049678000389,144.0,2.0,72.0,0.029327360000000014,2,0.3708948000567034,0.5211104999762028,1,1.1559001000132412,1.3219585999613628,1,0.2821842000121251,0.44902580010239035,,,51.0,63.0,98735,60.0,
77,-77,0,5,6,86,9,,,,,,,,,,,session,1650.8450245000422,180.0,2.0,72.0,0.029327360000000014,4,0.3973883999278769,0.6440118999453261,0,0.012508799904026091,0.01439069991465658,1,0.31565010000485927,0.48414239997509867,,,54.0,69.0,98735,60.0,
77,77,0,5,7,87,1,,,,,,,,,,,session,1659.1218935999786,174.0,2.0,72.0,0.029327360000000014,5,0.7147804000414908,0.8983589999843389,0,0.4862076999852434,0.7030514000216499,1,1.2015829998999834,1.3834565000142902,,,60.0,48.0,98735,60.0,
-77,77,0,5,8,88,5,,,,,,,,,,,session,1668.2411690000445,126.0,2.0,72.0,0.029327360000000014,2,0.9176187999546528,1.0840772999217734,0,0.28299099998548627,0.48356419999618083,1,1.847163400030695,2.0256642000749707,,,48.0,57.0,98735,60.0,
77,-77,45,5,9,89,10,,,,,,,,,,,session,1677.1356392999878,144.0,2.0,72.0,0.029327360000000014,4,0.10052290000021458,0.350879899924621,7,1.3598459000932053,1.5266190000111237,1,0.7687297000084072,1.018967500072904,,,69.0,66.0,98735,60.0,
77,77,-45,5,10,90,0,,,,,,,,,,,session,1686.1051378999837,132.0,2.0,72.0,0.029327360000000014,5,0.6701801000162959,0.8201487000333145,1,1.6243545999750495,1.7902217999799177,1,0.39914760005194694,0.5639286000514403,,,48.0,48.0,98735,60.0,
-77,-77,-45,5,11,91,12,,,,,,,,,,,session,1694.5276414999971,180.0,2.0,72.0,0.029327360000000014,3,0.11419170000590384,0.3106093999231234,1,0.9362461999990046,1.102930499939248,1,0.9660691000754014,1.1662774999858811,,,72.0,69.0,98735,60.0,
77,-77,-45,5,12,92,8,,,,,,,,,,,session,1704.5923791000387,168.0,2.0,72.0,0.029327360000000014,4,1.7448365999152884,1.9637100999243557,6,0.4361073999898508,0.6019225999480113,0,0.2825699000386521,0.44929920008871704,,,48.0,69.0,98735,60.0,
-77,-77,90,5,13,93,15,,,,,,,,,,,session,1713.8094250999857,174.0,2.0,72.0,0.029327360000000014,3,0.30051540001295507,0.4844732000492513,6,0.45161129999905825,0.5967686000512913,1,1.2012608000077307,1.3683013999834657,,,69.0,48.0,98735,60.0,
77,77,90,5,14,94,3,,,,,,,,,,,session,1722.558166700066,162.0,2.0,72.0,0.029327360000000014,5,2.9155859999591485,3.1156664999434724,6,1.3198882000287995,1.5039768000133336,1,0.8843277000123635,1.2012357000494376,,,69.0,48.0,98735,60.0,
77,77,45,5,15,95,2,,,,,,,,,,,session,1734.491654100013,162.0,2.0,72.0,0.029327360000000014,2,1.8089654999785125,1.9578853999264538,0,0.011533500044606626,0.058845299994573,0,0.011225500027649105,0.14535020000766963,,,48.0,66.0,98735,60.0,
77,77,0,6,0,96,1,,,,,,,,,,,session,1742.688685900066,174.0,2.0,72.0,0.029327360000000014,5,1.4668543000007048,1.6369860999984667,0,0.011658100062049925,0.013520400039851665,0,0.011144799995236099,0.01303049991838634,,,54.0,72.0,98735,60.0,
-77,77,0,6,1,97,5,,,,,,,,,,,session,1750.967769299983,156.0,2.0,72.0,0.029327360000000014,2,0.45439540001098067,0.6384571000235155,0,0.34518950001802295,0.5277873000595719,6,1.3522116000531241,1.5346369000617415,,,69.0,63.0,98735,60.0,
77,-77,45,6,2,98,10,,,,,,,,,,,session,1759.912251300062,174.0,2.0,72.0,0.029327360000000014,5,1.1286553000099957,1.2623717000242323,0,0.3684658999554813,0.5671069999225438,0,1.8476963000139222,2.0648400000063702,,,60.0,57.0,98735,60.0,
77,77,90,6,3,99,3,,,,,,,,,,,session,1770.5546392999822,168.0,2.0,72.0,0.029327360000000014,5,0.20118099998217076,0.3845281000249088,6,0.5224228999577463,0.6884856999386102,1,1.8562858999939635,2.039753600023687,,,60.0,69.0,98735,60.0,
77,77,90,6,3,99,3,,,materials/instructions\12_break.png,1780.0897708999692,1808.3138429999817,0,28.060346900019795,28.22206980001647,0.021376699907705188,28.235100799938664,,,,,,,,,,,,,,,,,,,,98735,60.0,
-77,77,90,6,4,100,7,,,,,,,,,,,session,1808.335418600007,174.0,2.0,72.0,0.029327360000000014,3,0.9270405999850482,1.110458999988623,0,0.01171220000833273,0.013692100066691637,0,0.011106699937954545,0.0787834000075236,,,69.0,54.0,98735,60.0,
77,77,-45,6,5,101,0,,,,,,,,,,,session,1816.3361727000447,132.0,2.0,72.0,0.029327360000000014,5,0.7379520999966189,0.9215535999974236,0,0.2637596999993548,0.4458226999267936,0,0.011091700056567788,0.012996400007978082,,,48.0,54.0,98735,60.0,
-77,-77,-45,6,6,102,12,,,,,,,,,,,session,1823.0545743000694,180.0,2.0,72.0,0.029327360000000014,2,1.003015699912794,1.1516119999578223,1,0.6016307999379933,0.7513087999541312,1,0.23274429992306978,0.4315452999435365,,,63.0,69.0,98735,60.0,
-77,77,-45,6,7,103,4,,,,,,,,,,,session,1832.0539701000089,132.0,2.0,72.0,0.029327360000000014,5,2.2538772999541834,2.4376483999658376,0,0.054440599982626736,0.23971130000427365,0,0.01114760001655668,0.013025099993683398,,,51.0,66.0,98735,60.0,
-77,-77,0,6,8,104,13,,,,,,,,,,,session,1840.3715403999668,138.0,2.0,72.0,0.029327360000000014,3,0.43859349994454533,0.5879579000174999,1,2.38790740002878,2.537951000034809,1,1.0645209000213072,1.2301468999357894,,,69.0,48.0,98735,60.0,
77,-77,-45,6,9,105,8,,,,,,,,,,,session,1850.4299966000253,138.0,2.0,72.0,0.029327360000000014,3,1.5949273000005633,1.8282959000207484,1,0.6208610000321642,0.7568762999726459,0,1.1699084000429139,1.3197544000577182,,,60.0,66.0,98735,60.0,
77,77,45,6,10,106,2,,,,,,,,,,,session,1860.7088545999723,156.0,2.0,72.0,0.029327360000000014,5,1.0858328000176698,1.2192158000543714,7,1.3065765000646934,1.4900533000472933,6,2.3635969000170007,2.4970577000640333,,,48.0,60.0,98735,60.0,
-77,77,45,6,11,107,6,,,,,,,,,,,session,1871.74633730005,126.0,2.0,72.0,0.029327360000000014,5,0.7233925999607891,0.875557699939236,0,0.012471700087189674,0.1730290000559762,0,0.011120000039227307,0.013024899992160499,,,66.0,48.0,98735,60.0,
-77,-77,45,6,12,108,14,,,,,,,,,,,session,1878.6691868000198,126.0,2.0,72.0,0.029327360000000014,3,0.34992219996638596,0.5177719999337569,7,0.7504125999985263,0.9339279999257997,1,1.836679199943319,2.0368100999621674,,,63.0,63.0,98735,60.0,
77,-77,0,6,13,109,9,,,,,,,,,,,session,1887.8092042000499,174.0,2.0,72.0,0.029327360000000014,2,1.3647412999998778,1.532390300068073,1,1.0165369999594986,1.217482200008817,0,0.8115410000318661,0.9823730000061914,,,66.0,66.0,98735,60.0,
-77,-77,90,6,14,110,15,,,,,,,,,,,session,1898.1082194000483,162.0,2.0,72.0,0.029327360000000014,4,1.0010282000293955,1.1824428000254557,6,0.16982879990246147,0.38556579989381135,0,0.8486491000512615,1.0154342000605538,,,72.0,57.0,98735,60.0,
77,-77,90,6,15,111,11,,,,,,,,,,,session,1906.9929987000069,150.0,2.0,72.0,0.029327360000000014,2,3.504359500017017,3.6707486000377685,0,0.3697324999375269,0.5191859999904409,0,0.011247899965383112,0.013098499970510602,,,69.0,72.0,98735,60.0,
-77,77,90,7,0,112,7,,,,,,,,,,,session,1917.5050963000394,168.0,2.0,72.0,0.029327360000000014,5,1.6949645999120548,1.843798599904403,0,0.41826740000396967,0.6027435000287369,0,0.011203599977307022,0.013075600028969347,,,72.0,60.0,98735,60.0,
-77,-77,0,7,1,113,13,,,,,,,,,,,session,1927.0029015999753,150.0,2.0,72.0,0.029327360000000014,4,0.9171907000709325,1.0838649000506848,0,0.3306396999396384,0.49840479996055365,0,0.011380399926565588,0.013797799940221012,,,66.0,66.0,98735,60.0,
77,-77,0,7,2,114,9,,,,,,,,,,,session,1934.7566825000104,126.0,2.0,72.0,0.029327360000000014,5,1.43742710002698,1.5952221000334248,1,0.3769514000741765,0.5985034999903291,0,0.2676558999810368,0.4664005999220535,,,72.0,72.0,98735,60.0,
-77,-77,-45,7,3,115,12,,,,,,,,,,,session,1943.3730634000385,156.0,2.0,72.0,0.029327360000000014,3,0.6310794999590144,0.8145194000098854,6,1.1164956000866368,1.2673323000781238,0,1.0021354999626055,1.218771299929358,,,69.0,69.0,98735,60.0,
77,-77,90,7,4,116,11,,,,,,,,,,,session,1953.0411711999914,174.0,2.0,72.0,0.029327360000000014,5,1.0348970999475569,1.1851715999655426,0,1.238066800055094,1.421830700011924,0,1.5965194000164047,1.8142862999811769,,,57.0,69.0,98735,60.0,
77,77,-45,7,5,117,0,,,,,,,,,,,session,1963.9084382000146,150.0,2.0,72.0,0.029327360000000014,5,0.31789359997492284,0.4678449999773875,1,1.4168348999228328,1.6013595999684185,6,0.9643849999411032,1.1306971999583766,,,51.0,63.0,98735,60.0,
77,77,45,7,6,118,2,,,,,,,,,,,session,1973.0242975000292,174.0,2.0,72.0,0.029327360000000014,5,0.43310380005277693,0.5664716999744996,7,2.573140099993907,2.7408738000085577,6,1.4989512000465766,1.6164783000713214,,,51.0,51.0,98735,60.0,
-77,-77,90,7,7,119,15,,,,,,,,,,,session,1983.986182200024,150.0,2.0,72.0,0.029327360000000014,3,0.6006653000367805,0.8007060000672936,6,0.6536351999966428,0.8038213000399992,1,2.200533200055361,2.381583100068383,,,48.0,66.0,98735,60.0,
-77,-77,90,7,7,119,15,,,materials/instructions\12_break.png,1994.4769448000006,2028.2559301999863,0,33.60806719993707,33.77674569992814,0.013863899977877736,33.782398300012574,,,,,,,,,,,,,,,,,,,,98735,60.0,
77,-77,45,7,8,120,10,,,,,,,,,,,session,2028.269664500025,162.0,2.0,72.0,0.029327360000000014,4,0.39928890008013695,0.6326315000187606,7,0.9210446999641135,1.0710844999412075,1,0.23284640000201762,0.39953549997881055,,,72.0,63.0,98735,60.0,
77,-77,-45,7,9,121,8,,,,,,,,,,,session,2037.421928600059,150.0,2.0,72.0,0.029327360000000014,3,1.264503699960187,1.447775000007823,1,0.37212419998832047,0.5545223000226542,0,0.01219690009020269,0.15096850006375462,,,72.0,66.0,98735,60.0,
77,77,90,7,10,122,3,,,,,,,,,,,session,2045.8292103999993,168.0,2.0,72.0,0.029327360000000014,3,0.9608378000557423,1.144295800011605,1,0.011701100040227175,0.16439350007567555,0,0.31042349990457296,0.514138099970296,,,60.0,57.0,98735,60.0,
-77,-77,45,7,11,123,14,,,,,,,,,,,session,2053.876520800055,132.0,2.0,72.0,0.029327360000000014,5,1.1048392999218777,1.3215181999839842,1,0.7211171999806538,0.921317300060764,0,0.35199579992331564,0.5515290999319404,,,66.0,69.0,98735,60.0,
-77,77,45,7,12,124,6,,,,,,,,,,,session,2062.5747024000157,144.0,2.0,72.0,0.029327360000000014,5,1.1048998999176547,1.304290600004606,1,0.011650200001895428,0.03260750009212643,0,0.3045096000423655,0.4745944000314921,,,63.0,51.0,98735,60.0,
-77,77,-45,7,13,125,4,,,,,,,,,,,session,2070.1162100000074,138.0,2.0,72.0,0.029327360000000014,2,0.47347500000614673,0.6236048999708146,7,1.3062991999322549,1.5257859999546781,0,0.6082088999683037,1.0387758000288159,,,51.0,69.0,98735,60.0,
77,77,0,7,14,126,1,,,,,,,,,,,session,2079.4709480999736,138.0,2.0,72.0,0.029327360000000014,2,2.6041301999939606,2.7885031000478193,1,0.4047472000820562,0.671939600026235,0,0.3002758000511676,0.48373980005271733,,,48.0,66.0,98735,60.0,
-77,77,0,7,15,127,5,,,,,,,,,,,session,2089.06143110001,126.0,2.0,72.0,0.029327360000000014,5,1.4347176000010222,1.6035271999426186,1,0.3683403000468388,0.5473847000394017,0,0.011096999980509281,0.040039699990302324,,,51.0,66.0,98735,60.0,
-77,-77,-45,8,0,128,12,,,,,,,,,,,session,2096.7481772999745,132.0,2.0,72.0,0.029327360000000014,3,0.43339419993571937,0.5999954999424517,1,1.9833773999707773,2.1330456999130547,1,0.335094099980779,0.5022065999219194,,,63.0,69.0,98735,60.0,
-77,77,45,8,1,129,6,,,,,,,,,,,session,2105.8787048000377,138.0,2.0,72.0,0.029327360000000014,5,2.9977811001008376,3.166384300100617,6,3.3884738999186084,3.5390755999833345,0,0.29623640002682805,0.4750744999619201,,,72.0,54.0,98735,60.0,
-77,-77,90,8,2,130,15,,,,,,,,,,,session,2118.9550469999667,132.0,2.0,72.0,0.029327360000000014,2,3.6682379000121728,3.834061300032772,1,1.102657400071621,1.2861126000061631,0,0.40197359991725534,0.5510808000108227,,,57.0,48.0,98735,60.0,
-77,-77,45,8,3,131,14,,,,,,,,,,,session,2130.0589803999756,138.0,2.0,72.0,0.029327360000000014,3,0.3652827999321744,0.5160526999970898,7,1.1736593999667093,1.4072013000259176,7,0.011084900004789233,0.012977999984286726,,,63.0,57.0,98735,60.0,
77,77,-45,8,4,132,0,,,,,,,,,,,session,2137.742559800041,174.0,2.0,72.0,0.029327360000000014,4,1.7986786999972537,2.048642799956724,6,2.8041568000335246,2.9544503000797704,0,0.41960979998111725,0.5697890999726951,,,69.0,66.0,98735,60.0,
77,-77,90,8,5,133,11,,,,,,,,,,,session,2150.57486719999,156.0,2.0,72.0,0.029327360000000014,4,1.9889186000218615,2.2215311999898404,6,0.3853470999747515,0.5521986000239849,1,0.4349791998974979,0.6015153999906033,,,63.0,54.0,98735,60.0,
77,77,90,8,6,134,3,,,,,,,,,,,session,2159.9317935999716,126.0,2.0,72.0,0.029327360000000014,5,0.7707154999952763,0.9276856000069529,6,1.2670807000249624,1.4003384000388905,7,0.2834575999295339,0.4680447999853641,,,48.0,69.0,98735,60.0,
-77,77,90,8,7,135,7,,,,,,,,,,,session,2168.79466210003,144.0,2.0,72.0,0.029327360000000014,2,0.716063900035806,0.8826263999799266,7,0.4631320999469608,0.6465230999747291,6,2.8976042999420315,3.081064499914646,,,57.0,60.0,98735,60.0,
77,77,45,8,8,136,2,,,,,,,,,,,session,2179.213130200049,126.0,2.0,72.0,0.029327360000000014,5,2.5754960000049323,2.7258303000126034,1,0.2813778000418097,0.4842950999736786,1,1.399000000092201,1.6007020000834018,,,60.0,72.0,98735,60.0,
-77,-77,0,8,9,137,13,,,,,,,,,,,session,2189.774682700052,174.0,2.0,72.0,0.029327360000000014,5,1.9801136000314727,2.1470401000697166,0,3.2214383999817073,3.419402999919839,0,1.3214932999107987,1.5375711999367923,,,54.0,57.0,98735,60.0,
-77,77,0,8,10,138,5,,,,,,,,,,,session,2203.0815065000206,132.0,2.0,72.0,0.029327360000000014,2,0.317089100019075,0.48563720006495714,0,0.8010588000761345,1.017736400011927,6,4.37029099999927,4.520609800005332,,,63.0,48.0,98735,60.0,
77,-77,45,8,11,139,10,,,,,,,,,,,session,2215.0939781999914,156.0,2.0,72.0,0.029327360000000014,3,1.3517171000130475,1.5534029999980703,0,0.6383032000157982,0.8224417000310495,0,1.0658728999551386,1.2504370999522507,,,57.0,48.0,98735,60.0,
77,-77,45,8,11,139,10,,,materials/instructions\12_break.png,2224.546939200023,2249.1987039999804,0,24.522729399963282,24.64973339997232,0.01898219995200634,24.65672019997146,,,,,,,,,,,,,,,,,,,,98735,60.0,
77,-77,-45,8,12,140,8,,,,,,,,,,,session,2249.2140865999972,126.0,2.0,72.0,0.029327360000000014,4,0.7829358000308275,0.9829413000261411,1,1.5397355000022799,1.6724923000438139,1,0.31737019994761795,0.5196200999198481,,,57.0,60.0,98735,60.0,
77,77,0,8,13,141,1,,,,,,,,,,,session,2258.5091959000565,138.0,2.0,72.0,0.029327360000000014,5,0.08444289991166443,0.26865559990983456,0,0.4696779999649152,0.6865273000439629,1,0.7910574999405071,0.9749887998914346,,,72.0,57.0,98735,60.0,
77,-77,0,8,14,142,9,,,,,,,,,,,session,2266.3289141000714,126.0,2.0,72.0,0.029327360000000014,4,0.4181217000586912,0.6350544000742957,0,0.5498809000710025,0.7281854000175372,6,3.098115000058897,3.249498500023037,,,60.0,54.0,98735,60.0,
-77,77,-45,8,15,143,4,,,,,,,,,,,session,2276.3958654999733,126.0,2.0,72.0,0.029327360000000014,2,0.22910300001967698,0.39592509996145964,1,0.8135978999780491,1.0471757999621332,1,0.8865270999958739,1.0866367999697104,,,66.0,48.0,98735,60.0,
-77,77,-45,9,0,144,4,,,,,,,,,,,session,2284.39261119999,168.0,2.0,72.0,0.029327360000000014,2,0.011345000006258488,0.14581090002320707,1,0.7163522999035195,0.8832145999185741,6,1.368086599977687,1.5515456000575796,,,60.0,63.0,98735,60.0,
77,-77,45,9,1,145,10,,,,,,,,,,,session,2293.2677787999855,156.0,2.0,72.0,0.029327360000000014,4,0.3815337000414729,0.5982919000089169,7,1.0855651999590918,1.2542389000300318,1,2.072110899956897,2.272202800028026,,,51.0,69.0,98735,60.0,
-77,77,45,9,2,146,6,,,,,,,,,,,session,2304.1093194000423,138.0,2.0,72.0,0.029327360000000014,2,0.7774115999927744,0.9270703999791294,7,0.7874564999947324,0.9839110999600962,1,1.1351813999935985,1.2686941999709234,,,60.0,60.0,98735,60.0,
77,77,0,9,3,147,1,,,,,,,,,,,session,2313.048644399969,168.0,2.0,72.0,0.029327360000000014,5,0.898439500015229,1.0319017000729218,0,0.4171028999844566,0.5821755999932066,1,2.516953799990006,2.6822715000016615,,,51.0,48.0,98735,60.0,
-77,-77,0,9,4,148,13,,,,,,,,,,,session,2323.9235686999746,132.0,2.0,72.0,0.029327360000000014,3,0.4153412999585271,0.5801030000438914,0,0.6737913999240845,0.8426775999832898,1,1.1359579000854865,1.3028107000282034,,,66.0,51.0,98735,60.0,
-77,77,0,9,5,149,5,,,,,,,,,,,session,2332.2663476000307,126.0,2.0,72.0,0.029327360000000014,2,0.07885999989230186,0.2615456999046728,0,0.01267789991106838,0.22257279988843948,6,0.359251799993217,0.5279436999699101,,,51.0,72.0,98735,60.0,
77,-77,-45,9,6,150,8,,,,,,,,,,,session,2338.8965034000576,138.0,2.0,72.0,0.029327360000000014,4,1.0437441000249237,1.3768783999839798,0,0.5488753999816254,0.7323066999670118,0,0.28554069995880127,0.43466439994517714,,,48.0,51.0,98735,60.0,
77,77,90,9,7,151,3,,,,,,,,,,,session,2347.1084216000745,156.0,2.0,72.0,0.029327360000000014,5,0.010834900080226362,0.09324060007929802,6,1.354702900047414,1.5384213000070304,1,1.046447500004433,1.2477365999948233,,,63.0,66.0,98735,60.0,
-77,-77,90,9,8,152,15,,,,,,,,,,,session,2356.1995155999903,144.0,2.0,72.0,0.029327360000000014,3,0.16596600005868822,0.3766954999882728,6,3.3657294999575242,3.547366200014949,1,0.5266856000525877,0.7101561999879777,,,72.0,57.0,98735,60.0,
-77,-77,-45,9,9,153,12,,,,,,,,,,,session,2366.957578700036,162.0,2.0,72.0,0.029327360000000014,5,1.398357600090094,1.5491914000594988,1,0.4190649000229314,0.551598499994725,1,0.011305299936793745,0.013211700017563999,,,51.0,72.0,98735,60.0,
77,-77,0,9,10,154,9,,,,,,,,,,,session,2375.271822400042,126.0,2.0,72.0,0.029327360000000014,4,1.101160699967295,1.4012750000692904,0,0.16244959994219244,0.3857057999121025,6,3.679614400025457,3.8465837000403553,,,63.0,48.0,98735,60.0,
77,77,45,9,11,155,2,,,,,,,,,,,session,2386.3109840999823,168.0,2.0,72.0,0.029327360000000014,5,1.4156300999457017,1.5656532999128103,0,4.440531700034626,4.6240838000085205,0,1.1201914000557736,1.2529999000253156,,,60.0,54.0,98735,60.0,
77,77,-45,9,12,156,0,,,,,,,,,,,session,2399.9153990000486,180.0,2.0,72.0,0.029327360000000014,5,1.172277000034228,1.3723216000944376,0,0.01167179993353784,0.013522099936380982,0,0.01106299995444715,0.01296550000552088,,,48.0,48.0,98735,60.0,
-77,77,90,9,13,157,7,,,,,,,,,,,session,2407.5230854999973,162.0,2.0,72.0,0.029327360000000014,2,1.456140200025402,1.65623169997707,0,0.011818400002084672,0.013699700008146465,0,0.011450099991634488,0.013328699977137148,,,63.0,57.0,98735,60.0,
-77,-77,45,9,14,158,14,,,,,,,,,,,session,2415.353686699993,156.0,2.0,72.0,0.029327360000000014,5,0.730714000063017,0.9309184000594541,0,0.16913320007734,0.37037920008879155,0,0.011017299955710769,0.012823999975807965,,,51.0,72.0,98735,60.0,
77,-77,90,9,15,159,11,,,,,,,,,,,session,2422.777008000063,144.0,2.0,72.0,0.029327360000000014,4,0.9072934999130666,1.1908668999094516,6,0.5176770000252873,0.703333199955523,1,0.3328570999437943,0.4994749999605119,,,69.0,57.0,98735,60.0,
77,-77,90,9,15,159,11,,,materials/instructions\12_break.png,2431.2567143000197,2447.8981623,0,16.505790899973363,16.63928759994451,0.019333100062794983,16.6465915000299,,,,,,,,,,,,,,,,,,,,98735,60.0,
77,77,-45,10,0,160,0,,,,,,,,,,,session,2447.9132289000554,156.0,2.0,72.0,0.029327360000000014,5,0.8658970999531448,1.0159932000096887,1,1.0368239999515936,1.2209236999042332,0,1.2156319000059739,1.3990717000560835,,,51.0,60.0,98735,60.0,
77,77,90,10,1,161,3,,,,,,,,,,,session,2458.0593697000295,180.0,2.0,72.0,0.029327360000000014,5,1.2305905000539497,1.41163200000301,0,0.36902400001417845,0.5523618999868631,1,0.31588080001529306,0.5330101000145078,,,66.0,66.0,98735,60.0,
-77,-77,90,10,2,162,15,,,,,,,,,,,session,2467.216559099965,138.0,2.0,72.0,0.029327360000000014,5,1.1258104000007734,1.2763021999271587,0,0.05078159994445741,0.23744109994731843,0,0.011068499996326864,0.18409700004849583,,,60.0,69.0,98735,60.0,
-77,77,45,10,3,163,6,,,,,,,,,,,session,2475.0274884999963,126.0,2.0,72.0,0.029327360000000014,2,1.4486133999889717,1.6329707999248058,1,0.4375262000830844,0.6205001000780612,0,0.011120900046080351,0.13265500008128583,,,51.0,72.0,98735,60.0,
77,77,45,10,4,164,2,,,,,,,,,,,session,2483.028484600014,168.0,2.0,72.0,0.029327360000000014,5,0.5035592000931501,0.687616000068374,7,0.7564954999834299,0.9237502999603748,7,0.33300680003594607,0.46652020001783967,,,60.0,54.0,98735,60.0,
77,77,0,10,5,165,1,,,,,,,,,,,session,2491.250378399971,132.0,2.0,72.0,0.029327360000000014,5,0.4110131000634283,0.5910582999931648,0,1.5807727000210434,1.7162449000170454,1,1.1146194000029936,1.2809868999756873,,,57.0,48.0,98735,60.0,
-77,77,-45,10,6,166,4,,,,,,,,,,,session,2500.711097200052,168.0,2.0,72.0,0.029327360000000014,2,1.1036485999356955,1.2551711000269279,0,0.36917830002494156,0.5526188000803813,0,0.4005315999966115,0.5840659999521449,,,60.0,57.0,98735,60.0,
-77,77,0,10,7,167,5,,,,,,,,,,,session,2509.2987438000273,156.0,2.0,72.0,0.029327360000000014,5,1.6799755000974983,1.7890612999908626,0,1.021357399993576,1.1881114999996498,0,0.5135334000224248,0.6815056001069024,,,63.0,66.0,98735,60.0,
77,-77,-45,10,8,168,8,,,,,,,,,,,session,2519.175841200049,126.0,2.0,72.0,0.029327360000000014,3,1.7084885999793187,1.9077298999764025,1,0.2689762000227347,0.469891200074926,0,0.09907609992660582,0.3499065999640152,,,54.0,48.0,98735,60.0,
-77,-77,-45,10,9,169,12,,,,,,,,,,,session,2527.1438356,180.0,2.0,72.0,0.029327360000000014,5,0.7130945000099018,0.8797464000526816,1,0.06481070001609623,0.24976269993931055,0,0.01107500004582107,0.21411200007423759,,,54.0,57.0,98735,60.0,
-77,77,90,10,10,170,7,,,,,,,,,,,session,2534.7671260000207,144.0,2.0,72.0,0.029327360000000014,2,0.011422100011259317,0.032453899970278144,6,1.099653699900955,1.269067099899985,6,0.48682109999936074,0.601356300059706,,,57.0,48.0,98735,60.0,
-77,-77,0,10,11,171,13,,,,,,,,,,,session,2542.7581654000096,156.0,2.0,72.0,0.029327360000000014,2,0.8475000000325963,1.013306500040926,1,0.050555999972857535,0.20187869993969798,0,0.3991501999553293,0.5821104999631643,,,57.0,66.0,98735,60.0,
77,-77,0,10,12,172,9,,,,,,,,,,,session,2550.662390700076,126.0,2.0,72.0,0.029327360000000014,5,1.368934900034219,1.5347282000584528,6,0.5391173999523744,0.7203665999695659,0,0.2912616999819875,0.49144220002926886,,,63.0,72.0,98735,60.0,
-77,-77,45,10,13,173,14,,,,,,,,,,,session,2559.2233829000033,156.0,2.0,72.0,0.029327360000000014,4,1.1113440999761224,1.3780167000368237,0,0.35231190000195056,0.5013719999697059,0,0.011169400066137314,0.013214100035838783,,,63.0,51.0,98735,60.0,
77,-77,45,10,14,174,10,,,,,,,,,,,session,2567.542827600031,126.0,2.0,72.0,0.029327360000000014,5,1.2843398000113666,1.4346651999512687,0,0.011660900083370507,0.013523500063456595,0,0.011158199980854988,0.013037000084295869,,,48.0,48.0,98735,60.0,
77,-77,90,10,15,175,11,,,,,,,,,,,session,2574.157726800069,174.0,2.0,72.0,0.029327360000000014,4,0.26840369997080415,0.46848869998939335,6,0.39249660004861653,0.5760627000126988,6,0.9365044999867678,1.0862041000509635,,,69.0,60.0,98735,60.0,
77,-77,0,11,0,176,9,,,,,,,,,,,session,2582.7959020000417,126.0,2.0,72.0,0.029327360000000014,5,1.047381200012751,1.2800154000287876,6,0.011554599972441792,0.013458700035698712,0,1.1696921000257134,0.011291300063021481,,,51.0,63.0,98735,60.0,
-77,77,0,11,1,177,5,,,,,,,,,,,session,2590.746365000028,156.0,2.0,72.0,0.029327360000000014,2,0.5343849000055343,0.7020473999436945,0,1.021353599964641,1.1700198999606073,1,0.22947149991523474,0.4463351999875158,,,54.0,66.0,98735,60.0,
77,77,45,11,2,178,2,,,,,,,,,,,session,2599.1155781999696,162.0,2.0,72.0,0.029327360000000014,5,0.19691509997937828,0.3379497999558225,7,7.669711299939081,7.851913799997419,0,0.4305668999440968,0.7812703000381589,,,60.0,57.0,98735,60.0,
-77,-77,90,11,3,179,15,,,,,,,,,,,session,2614.3275906000054,132.0,2.0,72.0,0.029327360000000014,3,0.8707308999728411,0.9888904000399634,6,0.5710352000314742,0.7217787000117823,1,0.13455480011180043,0.3182828000281006,,,69.0,54.0,98735,60.0,
-77,-77,90,11,3,179,15,,,materials/instructions\12_break.png,2622.094529599999,2639.094060000032,0,16.813968800008297,16.99744780000765,0.02351470000576228,17.00519890000578,,,,,,,,,,,,,,,,,,,,98735,60.0,
77,77,0,11,4,180,1,,,,,,,,,,,session,2639.10997520003,162.0,2.0,72.0,0.029327360000000014,5,0.1319381999783218,0.3154619999695569,0,0.804907500045374,1.0717469999799505,1,1.1712402999401093,1.3488306999206543,,,60.0,69.0,98735,60.0,
-77,-77,45,11,5,181,14,,,,,,,,,,,session,2648.1570302000036,126.0,2.0,72.0,0.029327360000000014,3,0.038885299931280315,0.22764910000842065,7,1.5739162999670953,1.7734324999619275,1,1.2826777000445873,1.4493020999943838,,,60.0,60.0,98735,60.0,
77,-77,90,11,6,182,11,,,,,,,,,,,session,2657.4611331999768,138.0,2.0,72.0,0.029327360000000014,4,0.26659130002371967,0.5153112000552937,6,0.721707500051707,0.9217000000644475,1,1.521619699895382,1.6869162999792024,,,66.0,51.0,98735,60.0,
-77,-77,0,11,7,183,13,,,,,,,,,,,session,2666.2839836999774,132.0,2.0,72.0,0.029327360000000014,3,0.01107220002450049,0.012987500056624413,0,1.0195962999714538,1.1993368999101222,1,2.051814700011164,2.2685363000491634,,,57.0,63.0,98735,60.0,
-77,77,-45,11,8,184,4,,,,,,,,,,,session,2675.746817699983,162.0,2.0,72.0,0.029327360000000014,2,1.6571207999950275,1.8072004000423476,1,0.7880642999662086,1.1549800999928266,0,0.9507761999266222,1.1349067999981344,,,66.0,66.0,98735,60.0,
-77,77,45,11,9,185,6,,,,,,,,,,,session,2686.2161146000726,144.0,2.0,72.0,0.029327360000000014,2,0.615770100033842,0.7658141000429168,7,1.290872099925764,1.4783168999711052,1,0.719784599961713,0.9168269999790937,,,60.0,66.0,98735,60.0,
77,77,90,11,10,186,3,,,,,,,,,,,session,2695.343164100079,168.0,2.0,72.0,0.029327360000000014,5,0.6851708999602124,0.8834469999419525,6,0.9540470000356436,1.0883339999709278,1,0.34792980004567653,0.5321052999934182,,,69.0,57.0,98735,60.0,
-77,-77,-45,11,11,187,12,,,,,,,,,,,session,2704.213212999981,156.0,2.0,72.0,0.029327360000000014,2,0.8500832000281662,1.0501663000322878,1,0.011525599984452128,0.16667389997746795,0,0.1495361999841407,0.3684185000602156,,,69.0,60.0,98735,60.0,
77,-77,45,11,12,188,10,,,,,,,,,,,session,2712.0199506999925,168.0,2.0,72.0,0.029327360000000014,4,0.3784215999767184,0.6282582000130787,7,1.9532275999663398,2.1533663999289274,1,0.8407648999709636,1.008092000032775,,,48.0,48.0,98735,60.0,
77,77,-45,11,13,189,0,,,,,,,,,,,session,2722.227936399984,150.0,2.0,72.0,0.029327360000000014,5,0.8170015000505373,0.9981687000254169,1,0.28756790002807975,0.4543881000718102,0,0.011118300026282668,0.20353510009590536,,,60.0,63.0,98735,60.0,
-77,77,90,11,14,190,7,,,,,,,,,,,session,2729.8872242000652,180.0,2.0,72.0,0.029327360000000014,2,0.21806799992918968,0.4014667000155896,6,0.6863794000819325,0.8647760000312701,1,1.008675800054334,1.208626100094989,,,69.0,60.0,98735,60.0,
77,-77,-45,11,15,191,8,,,,,,,,,,,session,2739.026583699975,150.0,2.0,72.0,0.029327360000000014,4,1.080593999940902,1.312861799960956,1,0.2723121999297291,0.4711786999832839,0,0.7148062998894602,0.9149626999860629,,,51.0,51.0,98735,60.0,
77,-77,90,12,0,192,11,,,,,,,,,,,session,2747.395224899985,168.0,2.0,72.0,0.029327360000000014,4,0.3013057999778539,0.5339643000625074,6,1.1870714999968186,1.3216349999420345,1,2.8281033999519423,3.004185799974948,,,54.0,57.0,98735,60.0,
-77,77,-45,12,1,193,4,,,,,,,,,,,session,2758.3559998000273,126.0,2.0,72.0,0.029327360000000014,2,0.39207420009188354,0.5753511000657454,7,1.5364123999606818,1.7046987999929115,1,0.31680289993528277,0.4510968999238685,,,54.0,60.0,98735,60.0,
-77,77,90,12,2,194,7,,,,,,,,,,,session,2766.913183500059,132.0,2.0,72.0,0.029327360000000014,2,0.20267500006593764,0.3695292000193149,6,0.38970790000166744,0.5575201000319794,1,0.2993480999721214,0.4990086000179872,,,69.0,69.0,98735,60.0,
-77,77,0,12,3,195,5,,,,,,,,,,,session,2774.2857713999692,144.0,2.0,72.0,0.029327360000000014,2,0.35431600001174957,0.5551374000497162,0,0.011477699968963861,0.05682429997250438,1,0.012109699891880155,0.22744719998445362,,,57.0,57.0,98735,60.0,
77,77,0,12,4,196,1,,,,,,,,,,,session,2780.878522700048,174.0,2.0,72.0,0.029327360000000014,5,0.011206700000911951,0.16574129997752607,0,0.012101400061510503,0.013953500078059733,6,0.4003243000479415,0.5813215000089258,,,66.0,63.0,98735,60.0,
-77,-77,0,12,5,197,13,,,,,,,,,,,session,2788.424995700014,180.0,2.0,72.0,0.029327360000000014,3,0.41584430006332695,0.632616400020197,0,0.41956670000217855,0.6197042000712827,1,1.471215800032951,1.670747400028631,,,54.0,60.0,98735,60.0,
-77,-77,90,12,6,198,15,,,,,,,,,,,session,2797.701345300069,126.0,2.0,72.0,0.029327360000000014,3,0.31874999997671694,0.4925074999919161,6,0.6707915000151843,0.8503505000844598,1,2.9150030999444425,3.099215600057505,,,69.0,57.0,98735,60.0,
-77,-77,-45,12,7,199,12,,,,,,,,,,,session,2807.8116341000423,138.0,2.0,72.0,0.029327360000000014,3,1.0516686000628397,1.2683436999795958,6,0.11644919996615499,0.3000200999667868,0,0.01108690002001822,0.21680189995095134,,,63.0,66.0,98735,60.0,
-77,-77,-45,12,7,199,12,,,materials/instructions\12_break.png,2815.525820799987,2844.2170290000504,0,28.521996999974363,28.689106300007552,0.02217220002785325,28.696364799980074,,,,,,,,,,,,,,,,,,,,98735,60.0,
77,-77,45,12,8,200,10,,,,,,,,,,,session,2844.232386299991,150.0,2.0,72.0,0.029327360000000014,4,0.13621409994084388,0.3371029000263661,7,1.665036000078544,1.848230000003241,1,1.1026933999964967,1.2692118999548256,,,51.0,66.0,98735,60.0,
77,77,45,12,9,201,2,,,,,,,,,,,session,2854.245829500025,144.0,2.0,72.0,0.029327360000000014,5,0.01101709995418787,0.21486389997880906,7,1.1044579000445083,1.3057059000711888,1,0.30350479995831847,0.4549272999865934,,,54.0,54.0,98735,60.0,
77,-77,-45,12,10,202,8,,,,,,,,,,,session,2861.867648900021,180.0,2.0,72.0,0.029327360000000014,4,0.6377544000279158,0.8383427000371739,1,0.874261699966155,1.0074836999410763,0,0.011024599894881248,0.013202199945226312,,,51.0,57.0,98735,60.0,
77,77,-45,12,11,203,0,,,,,,,,,,,session,2870.007210400072,144.0,2.0,72.0,0.029327360000000014,5,0.011188199976459146,0.0636844999389723,1,1.2044247000012547,1.3536758000263944,1,0.18316240003332496,0.33278990001417696,,,48.0,48.0,98735,60.0,
-77,-77,45,12,12,204,14,,,,,,,,,,,session,2877.2950591000263,132.0,2.0,72.0,0.029327360000000014,3,0.011051900102756917,0.049624300096184015,7,0.8185472999466583,1.0186252000276,1,0.011139899957925081,0.013288900023326278,,,57.0,69.0,98735,60.0,
77,-77,0,12,13,205,9,,,,,,,,,,,session,2884.12815470004,168.0,2.0,72.0,0.029327360000000014,4,0.20429500006139278,0.43654020002577454,0,0.01146449998486787,0.013431599945761263,6,0.011161400005221367,0.11088060005567968,,,72.0,51.0,98735,60.0,
-77,77,45,12,14,206,6,,,,,,,,,,,session,2890.994290600065,174.0,2.0,72.0,0.029327360000000014,2,0.011475500068627298,0.013569700066000223,7,1.3246140000410378,1.608191299950704,1,0.9854706000769511,1.236597300041467,,,48.0,57.0,98735,60.0,
77,77,90,12,15,207,3,,,,,,,,,,,session,2900.2364493000787,180.0,2.0,72.0,0.029327360000000014,5,0.967122699948959,1.1673601999646053,6,0.12648730003274977,0.3106044000014663,1,0.12776409997604787,0.37767890002578497,,,48.0,72.0,98735,60.0,
-77,-77,-45,13,0,208,12,,,,,,,,,,,session,2908.5340576000744,126.0,2.0,72.0,0.029327360000000014,3,1.0695235999301076,1.2588373000035062,1,0.7310988999670371,0.9105549000669271,1,0.01146319997496903,0.013339500059373677,,,48.0,72.0,98735,60.0,
77,77,0,13,1,209,1,,,,,,,,,,,session,2916.2922399999807,132.0,2.0,72.0,0.029327360000000014,5,1.4848343000048772,1.7849276999477297,0,0.011403499986045063,0.10063830006401986,1,0.011096299975179136,0.012994699995033443,,,69.0,69.0,98735,60.0,
77,-77,45,13,2,210,10,,,,,,,,,,,session,2924.1407198000234,126.0,2.0,72.0,0.029327360000000014,4,1.0408673000056297,1.2387976000318304,7,1.1886867999564856,1.373429200029932,1,0.01104860007762909,0.08376339997630566,,,57.0,51.0,98735,60.0,
-77,77,45,13,3,211,6,,,,,,,,,,,session,2932.1847931999946,138.0,2.0,72.0,0.029327360000000014,2,0.011752599966712296,0.013736700057052076,7,0.7351686999900267,0.9855391000164673,1,0.18758830009028316,0.42084730009082705,,,69.0,66.0,98735,60.0,
-77,77,-45,13,4,212,4,,,,,,,,,,,session,2940.1935153000522,168.0,2.0,72.0,0.029327360000000014,2,1.152330300072208,1.3200313000706956,1,0.01259970001410693,0.014484000043012202,1,0.1708454000763595,0.3710940000601113,,,69.0,54.0,98735,60.0,
77,77,45,13,5,213,2,,,,,,,,,,,session,2948.197347700014,156.0,2.0,72.0,0.029327360000000014,5,0.03249510005116463,0.23396630003117025,1,0.2009318999480456,0.48453169991262257,1,0.7338590000290424,0.9506375000346452,,,54.0,60.0,98735,60.0,
-77,77,0,13,6,214,5,,,,,,,,,,,session,2955.8037325000623,168.0,2.0,72.0,0.029327360000000014,2,0.7122843000106514,0.8468680999940261,0,0.3560393999796361,0.5727708999766037,6,0.321329899947159,0.5173107999144122,,,66.0,57.0,98735,60.0,
-77,-77,0,13,7,215,13,,,,,,,,,,,session,2964.646114800009,174.0,2.0,72.0,0.029327360000000014,5,0.983667999971658,1.2012316000182182,1,0.011539699975401163,0.013427300029434264,0,0.699103599996306,0.011006199987605214,,,60.0,63.0,98735,60.0,
77,-77,-45,13,8,216,8,,,,,,,,,,,session,2972.9690586000215,150.0,2.0,72.0,0.029327360000000014,2,1.051367099978961,1.218802799936384,1,0.1240929999621585,0.32403519994113594,0,0.01113249990157783,0.013047199929133058,,,72.0,54.0,98735,60.0,
77,-77,90,13,9,217,11,,,,,,,,,,,session,2980.5902469999855,174.0,2.0,72.0,0.029327360000000014,4,1.70454080007039,1.922080700052902,1,0.011912300018593669,0.013795399921946228,0,0.6962625000160187,0.8964398000389338,,,54.0,60.0,98735,60.0,
-77,77,90,13,10,218,7,,,,,,,,,,,session,2989.6959427000256,162.0,2.0,72.0,0.029327360000000014,2,0.37722759996540844,0.5603621000191197,6,0.5711477000731975,0.7700943000381812,1,1.5013788000214845,1.6855717999860644,,,48.0,69.0,98735,60.0,
77,77,-45,13,11,219,0,,,,,,,,,,,session,2998.803858599975,168.0,2.0,72.0,0.029327360000000014,5,0.8229240999789909,1.0414291999768466,1,3.00098569993861,3.2329383000032976,1,0.5817286999663338,0.7326997000491247,,,54.0,54.0,98735,60.0,
77,77,-45,13,11,219,0,,,materials/instructions\12_break.png,3010.5428087000037,3029.677420299966,0,18.982002699980512,19.1326393999625,0.02050839993171394,19.13969049998559,,,,,,,,,,,,,,,,,,,,98735,60.0,
77,-77,0,13,12,220,9,,,,,,,,,,,session,3029.6930382000282,150.0,2.0,72.0,0.029327360000000014,4,1.238480900065042,1.4232501999940723,1,0.15357419999781996,0.35371349996421486,0,1.1850134000414982,1.4523362000472844,,,69.0,54.0,98735,60.0,
-77,-77,90,13,13,221,15,,,,,,,,,,,session,3038.934983800049,138.0,2.0,72.0,0.029327360000000014,3,0.011152500053867698,0.048950099968351424,6,0.012462700018659234,0.014342600014060736,6,0.7426034000236541,0.9909465999808162,,,63.0,69.0,98735,60.0,
77,77,90,13,14,222,3,,,,,,,,,,,session,3045.9599227000726,150.0,2.0,72.0,0.029327360000000014,5,0.3148831999860704,0.5148303000023589,6,0.011664200108498335,0.013557900092564523,7,0.011089499923400581,0.012985199922695756,,,63.0,51.0,98735,60.0,
-77,-77,45,13,15,223,14,,,,,,,,,,,session,3052.6512690000236,144.0,2.0,72.0,0.029327360000000014,2,1.3201845000730827,1.484798000077717,0,0.352953499997966,0.6041113999672234,0,0.011157599976286292,0.13186570000834763,,,60.0,60.0,98735,60.0,
77,77,0,14,0,224,1,,,,,,,,,,,session,3060.7162702999776,132.0,2.0,72.0,0.029327360000000014,5,0.3017352999886498,0.4861217000288889,0,0.011458199936896563,0.013370699947699904,1,0.011177500011399388,0.013148500001989305,,,54.0,63.0,98735,60.0,
77,-77,-45,14,1,225,8,,,,,,,,,,,session,3066.9118593999883,168.0,2.0,72.0,0.029327360000000014,2,1.210119100054726,1.3768416000530124,0,0.012606900068931282,0.014547800063155591,0,0.011496599996462464,0.013368199928663671,,,60.0,60.0,98735,60.0,
77,77,45,14,2,226,2,,,,,,,,,,,session,3075.1253281000536,156.0,2.0,72.0,0.029327360000000014,5,0.4527912000194192,0.6196121999528259,7,2.2550966000417247,2.487411000067368,1,0.011088100029155612,0.01298340002540499,,,54.0,72.0,98735,60.0,
77,-77,45,14,3,227,10,,,,,,,,,,,session,3084.399449300021,144.0,2.0,72.0,0.029327360000000014,4,0.46945279999636114,0.6689358999719843,7,1.022223100066185,1.2010617000050843,1,1.4012833000160754,1.5513209000928327,,,63.0,54.0,98735,60.0,
77,77,90,14,4,228,3,,,,,,,,,,,session,3093.650702700019,126.0,2.0,72.0,0.029327360000000014,2,1.1318050000118092,1.2985989999724552,1,0.2173219999531284,0.40100600000005215,0,0.011074300040490925,0.012968900031410158,,,60.0,69.0,98735,60.0,
77,-77,90,14,5,229,11,,,,,,,,,,,session,3101.074801900075,162.0,2.0,72.0,0.029327360000000014,4,0.11024930002167821,0.30929260002449155,6,0.011237099999561906,0.013043300015851855,6,0.011093400069512427,0.012912700069136918,,,66.0,69.0,98735,60.0,
-77,77,45,14,6,230,6,,,,,,,,,,,session,3107.8172359999735,168.0,2.0,72.0,0.029327360000000014,2,0.011514399899169803,0.03542490000836551,7,1.8657105000456795,2.049028000095859,1,0.011145099997520447,0.013038199977017939,,,63.0,69.0,98735,60.0,
77,77,-45,14,7,231,0,,,,,,,,,,,session,3116.8071837000316,138.0,2.0,72.0,0.029327360000000014,5,0.062481599976308644,0.2301773999352008,1,1.4181699000764638,1.6029050999786705,1,0.011397499940358102,0.013296599965542555,,,54.0,54.0,98735,60.0,
-77,-77,0,14,8,232,13,,,,,,,,,,,session,3124.2082399000647,138.0,2.0,72.0,0.029327360000000014,3,0.5204684000927955,0.7039827000116929,0,0.011784500093199313,0.05149590002838522,1,0.011296999990008771,0.013222299981862307,,,60.0,60.0,98735,60.0,
-77,77,90,14,9,233,7,,,,,,,,,,,session,3130.7302849000553,126.0,2.0,72.0,0.029327360000000014,5,1.1283911999780685,1.345126900007017,1,0.012501999968662858,0.03429179999511689,0,0.011791700031608343,0.013694199966266751,,,54.0,72.0,98735,60.0,
-77,-77,-45,14,10,234,12,,,,,,,,,,,session,3138.135478400043,162.0,2.0,72.0,0.029327360000000014,5,1.0845599999884143,1.2835283000022173,1,0.011863699997775257,0.013741199974901974,0,0.011100600007921457,0.012979499995708466,,,66.0,63.0,98735,60.0,
-77,77,-45,14,11,235,4,,,,,,,,,,,session,3145.7592672000173,126.0,2.0,72.0,0.029327360000000014,2,0.1203014999628067,0.3372504999861121,1,1.4710087000858039,1.6527330999961123,1,3.494989699916914,3.6737497999565676,,,69.0,60.0,98735,60.0,
-77,-77,45,14,12,236,14,,,,,,,,,,,session,3157.1277969999937,180.0,2.0,72.0,0.029327360000000014,3,0.010797300026752055,0.18377580004744232,7,1.8535501000005752,2.070194299914874,1,0.011123299947939813,0.03155089996289462,,,51.0,48.0,98735,60.0,
-77,77,0,14,13,237,5,,,,,,,,,,,session,3165.6936751999892,150.0,2.0,72.0,0.029327360000000014,4,1.2495707999914885,1.5005139999557287,1,0.011460499954409897,0.013347400003112853,0,0.011654799920506775,0.013661099947057664,,,57.0,60.0,98735,60.0,
77,-77,0,14,14,238,9,,,,,,,,,,,session,3173.1152214000467,168.0,2.0,72.0,0.029327360000000014,4,1.855828500003554,2.0726574000436813,7,0.8519662999315187,1.0323143999557942,0,0.01119670004118234,0.045622200006619096,,,48.0,66.0,98735,60.0,
-77,-77,90,14,15,239,15,,,,,,,,,,,session,3182.4772876000497,180.0,2.0,72.0,0.029327360000000014,3,0.5907579000340775,0.8071130000753328,1,0.7370657999999821,0.9051100000506267,0,0.08170549990609288,0.2683832999318838,,,69.0,72.0,98735,60.0,
-77,-77,90,14,15,239,15,,,materials/instructions\12_break.png,3191.2786620999686,3213.31387730001,0,21.898956799996085,22.032493900042027,0.021655900054611266,22.040034800069407,,,,,,,,,,,,,,,,,,,,98735,60.0,
-77,77,90,15,0,240,7,,,,,,,,,,,session,3213.328562800074,174.0,2.0,72.0,0.029327360000000014,2,0.40745040006004274,0.5906219000462443,6,0.13368630001787096,0.31713380001019686,1,0.01199649996124208,0.16532010002993047,,,57.0,57.0,98735,60.0,
-77,-77,90,15,1,241,15,,,,,,,,,,,session,3220.672478100052,150.0,2.0,72.0,0.029327360000000014,3,0.011051499983295798,0.012982700020074844,6,0.01141729997470975,0.013557199970819056,6,0.5493568000383675,0.011139800073578954,,,57.0,69.0,98735,60.0,
77,-77,0,15,2,242,9,,,,,,,,,,,session,3228.015558300074,156.0,2.0,72.0,0.029327360000000014,5,1.1040037999628112,1.3039302000543103,1,0.011466700001619756,0.01337579998653382,0,0.4183729999931529,0.6364753000671044,,,60.0,60.0,98735,60.0,
77,77,0,15,3,243,1,,,,,,,,,,,session,3236.018526399974,126.0,2.0,72.0,0.029327360000000014,5,0.011057999916374683,0.21632509992923588,0,0.14911180001217872,0.3150753000518307,6,0.011484800023026764,0.013396100024692714,,,54.0,72.0,98735,60.0,
77,77,90,15,4,244,3,,,,,,,,,,,session,3242.216173600056,162.0,2.0,72.0,0.029327360000000014,5,0.010998500045388937,0.013114099972881377,6,0.011562000028789043,0.21830920001957566,6,0.011279400088824332,0.2183824999956414,,,51.0,51.0,98735,60.0,
-77,-77,45,15,5,245,14,,,,,,,,,,,session,3249.0619408000493,150.0,2.0,72.0,0.029327360000000014,4,1.321555000031367,1.54113300004974,1,0.011460200068540871,0.01339229999575764,0,0.011332700029015541,0.013188799959607422,,,57.0,54.0,98735,60.0,
77,-77,-45,15,6,246,8,,,,,,,,,,,session,3256.4271205000114,180.0,2.0,72.0,0.029327360000000014,4,0.01118170004338026,0.1695103000383824,1,1.3463080000365153,1.4964317000703886,1,0.15111089998390526,0.31747510004788637,,,72.0,54.0,98735,60.0,
77,-77,90,15,7,247,11,,,,,,,,,,,session,3264.9554402000504,168.0,2.0,72.0,0.029327360000000014,4,0.01191339991055429,0.013790199998766184,6,0.011436000000685453,0.013349399901926517,6,0.011205799994058907,0.031544099911116064,,,48.0,60.0,98735,60.0,
77,77,45,15,8,248,2,,,,,,,,,,,session,3271.777761699981,162.0,2.0,72.0,0.029327360000000014,5,1.1141292999964207,1.2969221000093967,6,0.011718999943695962,0.013615399948321283,0,1.1661991000873968,1.3164909000042826,,,57.0,57.0,98735,60.0,
-77,77,0,15,9,249,5,,,,,,,,,,,session,3280.485925200046,174.0,2.0,72.0,0.029327360000000014,5,1.6356798999477178,1.8199588999850675,7,0.01144839997868985,0.013320100028067827,0,0.011593800038099289,0.013490500045008957,,,48.0,54.0,98735,60.0,
-77,77,45,15,10,250,6,,,,,,,,,,,session,3288.400588300079,144.0,2.0,72.0,0.029327360000000014,2,0.011306899948976934,0.013209600001573563,7,1.1162972999736667,1.332743400009349,7,0.3142550999764353,0.5143300000345334,,,57.0,60.0,98735,60.0,
77,77,-45,15,11,251,0,,,,,,,,,,,session,3296.4959578000708,168.0,2.0,72.0,0.029327360000000014,5,0.452905899961479,0.6856823000125587,1,0.522500800085254,0.6893357000080869,1,0.011176300002261996,0.013057800009846687,,,60.0,69.0,98735,60.0,
-77,-77,-45,15,12,252,12,,,,,,,,,,,session,3304.280917300028,156.0,2.0,72.0,0.029327360000000014,5,0.924140999908559,1.0909574999241158,7,0.011842899955809116,0.05705669999588281,0,0.012055200058966875,0.013931400026194751,,,60.0,60.0,98735,60.0,
-77,77,-45,15,13,253,4,,,,,,,,,,,session,3311.504737799987,126.0,2.0,72.0,0.029327360000000014,2,0.011142499977722764,0.013240100000984967,1,1.17411479994189,1.3416342999553308,6,0.7024329999694601,0.8351798000512645,,,69.0,51.0,98735,60.0,
77,-77,45,15,14,254,10,,,,,,,,,,,session,3319.4477917000186,144.0,2.0,72.0,0.029327360000000014,2,0.749391800025478,0.9495397999417037,6,0.31989179993979633,0.5181026998907328,0,0.255449999938719,0.4535504999803379,,,57.0,54.0,98735,60.0,
-77,-77,0,15,15,255,13,,,,,,,,,,,session,3327.056071500061,180.0,2.0,72.0,0.029327360000000014,3,0.012018699897453189,0.013907599961385131,6,0.012454300071112812,0.014324100106023252,6,1.4131996999494731,1.6128904999932274,,,72.0,60.0,98735,60.0,
77,77,-45,16,0,256,0,,,,,,,,,,,session,3335.3962194999913,156.0,2.0,72.0,0.029327360000000014,5,0.8892061000224203,1.122870699968189,6,0.03220260003581643,0.30210560001432896,0,0.4331673999549821,0.633235799963586,,,60.0,66.0,98735,60.0,
77,-77,45,16,1,257,10,,,,,,,,,,,session,3343.631161199999,162.0,2.0,72.0,0.029327360000000014,4,0.011116999899968505,0.22230789996683598,7,1.2538807999808341,1.454339599935338,1,1.281845199991949,1.4653187000658363,,,51.0,69.0,98735,60.0,
77,-77,-45,16,2,258,8,,,,,,,,,,,session,3352.922323500039,126.0,2.0,72.0,0.029327360000000014,5,0.9146615999052301,1.1115516999270767,1,0.011707099969498813,0.013628099928610027,0,0.8189954000990838,1.0024106000782922,,,51.0,69.0,98735,60.0,
77,77,45,16,3,259,2,,,,,,,,,,,session,3361.41800220008,180.0,2.0,72.0,0.029327360000000014,5,0.011298900004476309,0.013226000010035932,7,0.8541518000420183,1.053445899975486,6,1.4360804000170901,1.6177823999896646,,,66.0,63.0,98735,60.0,
77,77,45,16,3,259,2,,,materials/instructions\12_break.png,3370.733865400078,3399.640267800074,0,28.709402700071223,28.904386600013822,0.019796399981714785,28.916784099885263,,,,,,,,,,,,,,,,,,,,98735,60.0,
-77,-77,90,16,4,260,15,,,,,,,,,,,session,3399.6613126000157,156.0,2.0,72.0,0.029327360000000014,5,1.6577947000041604,1.857958700042218,0,0.29892349999863654,0.48171459999866784,0,0.012089700088836253,0.013997400063090026,,,48.0,66.0,98735,60.0,
-77,-77,0,16,5,261,13,,,,,,,,,,,session,3408.245223700069,180.0,2.0,72.0,0.029327360000000014,3,0.011188199976459146,0.18633089994546026,0,0.011640999931842089,0.013541599968448281,6,0.14833450003061444,0.2985916000325233,,,72.0,63.0,98735,60.0,
77,-77,90,16,6,262,11,,,,,,,,,,,session,3415.4541029999964,126.0,2.0,72.0,0.029327360000000014,5,1.2178235999308527,1.417927199974656,1,0.011288999929092824,0.013057900010608137,0,0.012421299936249852,0.014314699918031693,,,54.0,48.0,98735,60.0,
-77,-77,45,16,7,263,14,,,,,,,,,,,session,3422.160046700039,138.0,2.0,72.0,0.029327360000000014,3,0.011098299990408123,0.013192799990065396,7,1.1198738999664783,1.3048547999933362,1,0.13146950001828372,0.3150825999910012,,,66.0,51.0,98735,60.0,
77,-77,0,16,8,264,9,,,,,,,,,,,session,3429.597167500062,138.0,2.0,72.0,0.029327360000000014,2,1.287226999993436,1.4730290999868885,1,0.011801299988292158,0.013665199978277087,0,0.011054600006900728,0.012920400011353195,,,48.0,69.0,98735,60.0,
-77,77,45,16,9,265,6,,,,,,,,,,,session,3436.797992900014,138.0,2.0,72.0,0.029327360000000014,2,0.01106900000013411,0.15054539998527616,7,0.9509375001071021,1.1179807001026347,1,0.695732600055635,0.8626973000355065,,,51.0,54.0,98735,60.0,
-77,-77,-45,16,10,266,12,,,,,,,,,,,session,3444.451947499998,168.0,2.0,72.0,0.029327360000000014,3,0.01116250001359731,0.013054099981673062,1,2.217076199944131,2.3848068999359384,1,0.01179949997458607,0.08155669993720949,,,63.0,63.0,98735,60.0,
-77,77,-45,16,11,267,4,,,,,,,,,,,session,3453.3797001000494,180.0,2.0,72.0,0.029327360000000014,2,0.9356233000289649,1.138534800033085,1,0.7546843999298289,0.9726528000319377,1,0.6501389999175444,0.8988693999126554,,,60.0,60.0,98735,60.0,
-77,77,90,16,12,268,7,,,,,,,,,,,session,3462.8391052000225,132.0,2.0,72.0,0.029327360000000014,2,0.011316700023598969,0.01339530001860112,6,0.011355799972079694,0.19870349997654557,6,0.011046399944461882,0.01293590001296252,,,54.0,66.0,98735,60.0,
77,77,0,16,13,269,1,,,,,,,,,,,session,3469.2417483000318,162.0,2.0,72.0,0.029327360000000014,5,0.8346268000314012,1.0014535000082105,0,0.011656699934974313,0.013542999979108572,6,0.01206920004915446,0.1509249999653548,,,72.0,48.0,98735,60.0,
-77,77,0,16,14,270,5,,,,,,,,,,,session,3476.5671983000357,168.0,2.0,72.0,0.029327360000000014,2,0.011416499968618155,0.013300899998284876,6,0.011802099994383752,0.013683900004252791,6,0.01137419999577105,0.013271499890834093,,,66.0,72.0,98735,60.0,
77,77,90,16,15,271,3,,,,,,,,,,,session,3483.1675199000165,150.0,2.0,72.0,0.029327360000000014,5,0.3785146999871358,0.6183039000025019,6,0.011488899937830865,0.25806469994131476,6,0.9347246000543237,1.1151873000198975,,,60.0,63.0,98735,60.0,
77,77,-45,17,0,272,0,,,,,,,,,,,session,3491.348360400065,132.0,2.0,72.0,0.029327360000000014,3,1.0306768999435008,1.2971818000078201,1,0.011459799949079752,0.04976159997750074,0,0.01195070007815957,0.013873500050976872,,,54.0,57.0,98735,60.0,
-77,77,-45,17,1,273,4,,,,,,,,,,,session,3498.2255509999814,138.0,2.0,72.0,0.029327360000000014,2,0.3696111000608653,0.5697275000857189,1,1.4386190000222996,1.605597999994643,1,0.06832009996287525,0.2360995999770239,,,63.0,48.0,98735,60.0,
-77,-77,-45,17,2,274,12,,,,,,,,,,,session,3506.237913400051,132.0,2.0,72.0,0.029327360000000014,3,0.01108799991197884,0.11108099995180964,1,0.01204229996073991,0.013951400062069297,1,0.011253600008785725,0.013176899985410273,,,63.0,60.0,98735,60.0,
-77,-77,0,17,3,275,13,,,,,,,,,,,session,3512.3276544000255,162.0,2.0,72.0,0.029327360000000014,3,0.485249700024724,0.7182972000446171,0,0.011628499953076243,0.20363020000513643,1,0.011259000049903989,0.013203699956648052,,,60.0,66.0,98735,60.0,
-77,-77,45,17,4,276,14,,,,,,,,,,,session,3519.5096017000033,162.0,2.0,72.0,0.029327360000000014,3,0.01228710007853806,0.12146050005685538,7,0.7167507000267506,0.9338084999471903,1,0.011040000012144446,0.012846800033003092,,,60.0,63.0,98735,60.0,
-77,77,90,17,5,277,7,,,,,,,,,,,session,3526.782410099986,180.0,2.0,72.0,0.029327360000000014,2,0.5104060000739992,0.6990819000639021,6,0.012370500015094876,0.014445099979639053,1,0.01098770007956773,0.01287069998215884,,,60.0,66.0,98735,60.0,
77,-77,-45,17,6,278,8,,,,,,,,,,,session,3534.097814799985,132.0,2.0,72.0,0.029327360000000014,5,0.7876218999736011,1.0057240999303758,6,0.011586699984036386,0.2515024000313133,0,0.11620849999599159,0.3188936999067664,,,69.0,60.0,98735,60.0,
77,-77,0,17,7,279,9,,,,,,,,,,,session,3541.467186199967,150.0,2.0,72.0,0.029327360000000014,4,0.011035099974833429,0.1665485999546945,0,0.011406300007365644,0.10070850001648068,1,1.2536650999682024,1.4529556999914348,,,69.0,54.0,98735,60.0,
77,-77,0,17,7,279,9,,,materials/instructions\12_break.png,3549.2194799999706,3558.946234400035,0,9.574739600066096,9.724743700004183,0.01992330001667142,9.732221700018272,,,,,,,,,,,,,,,,,,,,98735,60.0,
77,77,45,17,8,280,2,,,,,,,,,,,session,3558.9623618000187,150.0,2.0,72.0,0.029327360000000014,5,0.010848599951714277,0.17455899994820356,7,1.0393039000919089,1.2394755000714213,1,0.011192400008440018,0.03713089996017516,,,57.0,72.0,98735,60.0,
77,77,0,17,9,281,1,,,,,,,,,,,session,3566.515041799983,156.0,2.0,72.0,0.029327360000000014,5,0.8874867999693379,1.0879993999842554,0,0.011660899966955185,0.10265620006248355,1,0.011121200048364699,0.01109719998203218,,,51.0,66.0,98735,60.0,
77,-77,90,17,10,282,11,,,,,,,,,,,session,3573.7179867000086,138.0,2.0,72.0,0.029327360000000014,4,0.2708715000189841,0.4709706000285223,6,0.011412100051529706,0.013338000047951937,1,0.011138500063680112,0.013079500058665872,,,54.0,66.0,98735,60.0,
77,77,90,17,11,283,3,,,,,,,,,,,session,3580.659547300078,138.0,2.0,72.0,0.029327360000000014,5,1.2207475999603048,1.3695993999717757,6,0.047766200033947825,0.21579079993534833,1,0.012260999996215105,0.033482099999673665,,,54.0,69.0,98735,60.0,
-77,-77,90,17,12,284,15,,,,,,,,,,,session,3588.081599200028,162.0,2.0,72.0,0.029327360000000014,3,0.011270900024101138,0.013172800070606172,6,0.011457500047981739,0.01340559998061508,1,0.011177700012922287,0.013067899970337749,,,66.0,69.0,98735,60.0,
77,-77,45,17,13,285,10,,,,,,,,,,,session,3594.538096799981,150.0,2.0,72.0,0.029327360000000014,4,0.011550300056114793,0.21708770003169775,1,0.40160179999656975,0.9019720000214875,7,0.011073800036683679,0.0131299999775365,,,51.0,57.0,98735,60.0,
-77,77,45,17,14,286,6,,,,,,,,,,,session,3601.750311300042,162.0,2.0,72.0,0.029327360000000014,2,0.667255200096406,0.8497748000081629,7,1.583670899970457,1.7337925999891013,1,0.011311199981719255,0.013202100060880184,,,57.0,66.0,98735,60.0,
-77,77,0,17,15,287,5,,,,,,,,,,,session,3610.5446573999943,168.0,2.0,72.0,0.029327360000000014,2,0.01186749991029501,0.2833767000120133,0,0.01183209998998791,0.13632729998789728,1,0.3388734000036493,0.5555089999688789,,,69.0,51.0,98735,60.0,
77,-77,45,18,0,288,10,,,,,,,,,,,session,3617.774464600021,132.0,2.0,72.0,0.029327360000000014,4,0.011328499997034669,0.013184500043280423,7,2.8810532999923453,3.064523399923928,1,0.011040700017474592,0.012909700046293437,,,60.0,66.0,98735,60.0,
-77,77,90,18,1,289,7,,,,,,,,,,,session,3627.2774931000313,162.0,2.0,72.0,0.029327360000000014,2,0.468219600035809,0.6504767000442371,6,0.4888238999992609,0.705429199966602,6,5.7059788999613374,5.906061999965459,,,63.0,60.0,98735,60.0,
77,77,0,18,2,290,1,,,,,,,,,,,session,3640.7410383999813,144.0,2.0,72.0,0.029327360000000014,5,0.011133400024846196,0.013026500004343688,0,0.011662599979899824,0.013555900077335536,1,0.011095199966803193,0.013073599897325039,,,69.0,54.0,98735,60.0,
-77,77,0,18,3,291,5,,,,,,,,,,,session,3647.260398800019,144.0,2.0,72.0,0.029327360000000014,2,0.01121750008314848,0.013158100075088441,0,1.4658694999525324,1.6817626999691129,1,0.011539899976924062,0.21540479990653694,,,69.0,69.0,98735,60.0,
-77,-77,45,18,4,292,14,,,,,,,,,,,session,3655.3353778000455,138.0,2.0,72.0,0.029327360000000014,3,0.011379799921996891,0.1512103999266401,7,1.068260099971667,1.3516923999413848,7,0.011050200089812279,0.01294650009367615,,,72.0,51.0,98735,60.0,
-77,-77,90,18,5,293,15,,,,,,,,,,,session,3662.637989400071,150.0,2.0,72.0,0.029327360000000014,3,0.026826900080777705,0.27825690002646297,6,0.011448499979451299,0.013354599941521883,6,0.011109800077974796,0.012970500043593347,,,69.0,63.0,98735,60.0,
-77,77,45,18,6,294,6,,,,,,,,,,,session,3669.7097802000353,138.0,2.0,72.0,0.029327360000000014,2,0.4022252999711782,0.5868690999923274,7,1.518888600054197,1.7690719000529498,1,0.011136199929751456,0.013053999980911613,,,69.0,57.0,98735,60.0,
77,77,45,18,7,295,2,,,,,,,,,,,session,3677.9349818000337,162.0,2.0,72.0,0.029327360000000014,5,0.3452938999980688,0.5786778000183403,7,0.8685616999864578,1.1356310999253765,1,0.9292140000034124,1.1075590000255033,,,72.0,54.0,98735,60.0,
-77,-77,-45,18,8,296,12,,,,,,,,,,,session,3686.9971806000685,144.0,2.0,72.0,0.029327360000000014,3,1.0836296000052243,1.3338456000201404,6,0.0116426000604406,0.013540100073441863,0,0.011082399985753,0.013356699957512319,,,69.0,60.0,98735,60.0,
77,-77,90,18,9,297,11,,,,,,,,,,,session,3694.628852900001,180.0,2.0,72.0,0.029327360000000014,5,0.9843906000023708,1.2178538999287412,6,0.3223305999999866,0.5548686999827623,0,0.01124059990979731,0.013123099924996495,,,54.0,51.0,98735,60.0,
-77,77,-45,18,10,298,4,,,,,,,,,,,session,3702.6131272000493,174.0,2.0,72.0,0.029327360000000014,2,0.012324300012551248,0.08322589995805174,1,1.4174973999615759,1.5889371000230312,1,0.011199100059457123,0.013251000083982944,,,66.0,69.0,98735,60.0,
77,77,90,18,11,299,3,,,,,,,,,,,session,3710.9277433999814,150.0,2.0,72.0,0.029327360000000014,5,0.8440817000810057,1.0941932999994606,1,0.12166090006940067,0.38831540010869503,0,0.14703830005601048,0.38026010000612587,,,57.0,51.0,98735,60.0,
77,77,90,18,11,299,3,,,materials/instructions\12_break.png,3718.57888809999,3728.7393857999705,1,10.057982199941762,10.158027800032869,0.02214559994172305,10.165275300038047,,,,,,,,,,,,,,,,,,,,98735,60.0,
77,-77,0,18,12,300,9,,,,,,,,,,,session,3728.754368999973,156.0,2.0,72.0,0.029327360000000014,4,0.32393030007369816,0.5397123000584543,0,0.011459199944511056,0.013460599933750927,1,0.21919370000250638,0.4191743000410497,,,48.0,63.0,98735,60.0,
77,-77,-45,18,13,301,8,,,,,,,,,,,session,3736.298088300042,156.0,2.0,72.0,0.029327360000000014,4,0.3966194000095129,0.5804051000159234,1,1.0424619999248534,1.2423673999728635,1,0.011191800003871322,0.013082699966616929,,,69.0,69.0,98735,60.0,
-77,-77,0,18,14,302,13,,,,,,,,,,,session,3744.4806304000085,168.0,2.0,72.0,0.029327360000000014,3,0.48475319996941835,0.7340411000186577,0,0.05333659995812923,0.055234899977222085,0,0.2836648999946192,0.5173661999870092,,,66.0,51.0,98735,60.0,
77,77,-45,18,15,303,0,,,,,,,,,,,session,3751.9967935000313,156.0,2.0,72.0,0.029327360000000014,5,0.011041200021281838,0.09569300001021475,1,1.4215987999923527,1.605385100003332,1,0.011122200055979192,0.01302790001500398,,,57.0,57.0,98735,60.0,
-77,-77,90,19,0,304,15,,,,,,,,,,,session,3760.2476212000474,180.0,2.0,72.0,0.029327360000000014,2,1.0874822000041604,1.2696281999815255,1,0.012013699975796044,0.013939399970695376,0,0.9948645000113174,1.195010400027968,,,69.0,54.0,98735,60.0,
77,-77,90,19,1,305,11,,,,,,,,,,,session,3769.222028200049,168.0,2.0,72.0,0.029327360000000014,4,1.193061099969782,1.4598659999901429,6,0.011668800027109683,0.013567400048486888,0,0.011085100006312132,0.013194700004532933,,,63.0,48.0,98735,60.0,
-77,77,45,19,2,306,6,,,,,,,,,,,session,3776.8162015000125,162.0,2.0,72.0,0.029327360000000014,2,0.2029961000662297,0.45352410001214594,7,1.187938000075519,1.3710689001018181,1,0.9193261999171227,1.1187722999602556,,,60.0,51.0,98735,60.0,
77,-77,-45,19,3,307,8,,,,,,,,,,,session,3785.7336855999893,138.0,2.0,72.0,0.029327360000000014,4,0.4852864999556914,0.6862390999449417,1,1.3677303999429569,1.5335638000397012,1,0.8354207000229508,1.0197673999937251,,,54.0,66.0,98735,60.0,
-77,-77,0,19,4,308,13,,,,,,,,,,,session,3794.7113046000013,126.0,2.0,72.0,0.029327360000000014,3,0.3281144999200478,0.5447228999109939,0,0.5540856000734493,0.704063200042583,6,1.4342331000370905,1.7192131000338122,,,57.0,66.0,98735,60.0,
77,77,45,19,5,309,2,,,,,,,,,,,session,3803.9192572999746,126.0,2.0,72.0,0.029327360000000014,5,0.2180627000052482,0.41816310002468526,7,1.2008629000047222,1.368809700012207,1,0.8319004999939352,1.032949100015685,,,66.0,72.0,98735,60.0,
-77,77,-45,19,6,310,4,,,,,,,,,,,session,3812.5890807000687,162.0,2.0,72.0,0.029327360000000014,2,0.2978598000481725,0.48055189999286085,1,1.0961642999900505,1.274299000040628,6,0.010988200083374977,0.012707400019280612,,,48.0,63.0,98735,60.0,
-77,-77,-45,19,7,311,12,,,,,,,,,,,session,3820.3661848000484,144.0,2.0,72.0,0.029327360000000014,3,1.5677479000296444,1.7677349000005051,6,0.01143810001667589,0.013272000011056662,0,0.01119789993390441,0.013062999933026731,,,60.0,48.0,98735,60.0,
-77,-77,45,19,8,312,14,,,,,,,,,,,session,3827.813371199998,174.0,2.0,72.0,0.029327360000000014,3,0.011139900074340403,0.01293450000230223,7,1.1395793999545276,1.3732163000386208,1,0.011022499995306134,0.012913199956528842,,,60.0,54.0,98735,60.0,
77,77,-45,19,9,313,0,,,,,,,,,,,session,3835.444621599978,150.0,2.0,72.0,0.029327360000000014,5,0.011376800015568733,0.13213929999619722,1,1.0336497999960557,1.2336146999150515,1,0.012108399998396635,0.013889300054870546,,,69.0,69.0,98735,60.0,
-77,77,90,19,10,314,7,,,,,,,,,,,session,3843.083878900041,132.0,2.0,72.0,0.029327360000000014,2,0.7820726999780163,0.9655473000602797,6,0.01142310001887381,0.013349800021387637,1,0.012075599981471896,0.013959100004285574,,,66.0,57.0,98735,60.0,
77,-77,0,19,11,315,9,,,,,,,,,,,session,3849.7829244000604,180.0,2.0,72.0,0.029327360000000014,4,0.5992964000906795,0.8664631000719965,0,0.3209443000378087,0.551170099992305,0,1.0684621999971569,1.253673700033687,,,57.0,48.0,98735,60.0,
77,-77,45,19,12,316,10,,,,,,,,,,,session,3858.660010599997,144.0,2.0,72.0,0.029327360000000014,5,1.2986750999698415,1.4771568999858573,6,0.011466700001619756,0.013394200010225177,0,0.011182799935340881,0.013052399968728423,,,54.0,51.0,98735,60.0,
-77,77,0,19,13,317,5,,,,,,,,,,,session,3865.845884700073,174.0,2.0,72.0,0.029327360000000014,2,0.4340398999629542,0.6344459999818355,0,0.011683100019581616,0.013461500057019293,1,0.010979100014083087,0.02495019999332726,,,51.0,51.0,98735,60.0,
77,77,0,19,14,318,1,,,,,,,,,,,session,3872.5809229000006,144.0,2.0,72.0,0.029327360000000014,5,1.053450100007467,1.2542708999244496,1,0.011871299939230084,0.013757799984887242,0,0.011255500023253262,0.013149800011888146,,,51.0,48.0,98735,60.0,
77,77,90,19,15,319,3,,,,,,,,,,,session,3879.3686144000385,180.0,2.0,72.0,0.029327360000000014,5,0.36712319997604936,0.5854624999919906,6,0.2775039999978617,0.5118843000382185,1,0.011418299982324243,0.013513099984265864,,,63.0,69.0,98735,60.0,
77,77,90,19,15,319,3,,,materials/instructions\12_break.png,3887.186330000055,3902.2043081000447,0,14.84894030005671,15.015848700073548,0.015649399952962995,15.023822100018151,,,,,,,,,,,,,,,,,,,,98735,60.0,
-77,-77,0,20,0,320,13,,,,,,,,,,,session,3902.219842300052,138.0,2.0,72.0,0.029327360000000014,3,0.010926000075414777,0.042035400052554905,0,0.011440300033427775,0.013361699995584786,6,0.011096700094640255,0.0130635000532493,,,69.0,66.0,98735,60.0,
-77,77,-45,20,1,321,4,,,,,,,,,,,session,3908.3336299000075,144.0,2.0,72.0,0.029327360000000014,2,0.2994370999513194,0.4829981999937445,1,0.9635546000208706,1.1472585999872535,1,0.011085800011642277,0.030092200031504035,,,72.0,48.0,98735,60.0,
77,77,0,20,2,322,1,,,,,,,,,,,session,3915.931317400071,180.0,2.0,72.0,0.029327360000000014,5,0.48619419999886304,0.6362543000141159,0,0.012662600027397275,0.014606200042180717,1,0.012151700095273554,0.014061900088563561,,,69.0,51.0,98735,60.0,
77,77,-45,20,3,323,0,,,,,,,,,,,session,3923.035332600004,174.0,2.0,72.0,0.029327360000000014,5,0.7712240999098867,0.9538197999354452,1,1.4622631999664009,1.6163737999740988,6,0.01162790006492287,0.013541600084863603,,,72.0,57.0,98735,60.0,
77,-77,90,20,4,324,11,,,,,,,,,,,session,3932.13034100004,150.0,2.0,72.0,0.029327360000000014,4,0.3982195999706164,0.5808586999773979,6,0.011442000046372414,0.01332270004786551,1,0.01112410007044673,0.012998600024729967,,,54.0,63.0,98735,60.0,
77,-77,45,20,5,325,10,,,,,,,,,,,session,3938.6481407000683,162.0,2.0,72.0,0.029327360000000014,4,0.8048712998861447,0.9883831999031827,7,1.5397976000094786,1.8240364999510348,1,0.011060700053349137,0.01321310002822429,,,57.0,54.0,98735,60.0,
-77,-77,-45,20,6,326,12,,,,,,,,,,,session,3947.472367200069,126.0,2.0,72.0,0.029327360000000014,5,1.1789926000637934,1.3599233999848366,1,0.012067099916748703,0.01410469994880259,0,0.7152481999946758,0.011083400109782815,,,51.0,54.0,98735,60.0,
77,-77,0,20,7,327,9,,,,,,,,,,,session,3954.8739298,156.0,2.0,72.0,0.029327360000000014,4,0.5276224999688566,0.7112408999819309,0,0.011492700083181262,0.013373700086958706,1,0.011208399897441268,0.013139999937266111,,,51.0,66.0,98735,60.0,
-77,-77,90,20,8,328,15,,,,,,,,,,,session,3961.6318566000555,132.0,2.0,72.0,0.029327360000000014,5,2.003171000047587,2.153873300063424,6,0.01206470001488924,0.01396720006596297,0,0.01097860001027584,0.01289590005762875,,,63.0,69.0,98735,60.0,
-77,77,45,20,9,329,6,,,,,,,,,,,session,3969.670332800015,174.0,2.0,72.0,0.029327360000000014,2,0.011195799917913973,0.013935499940998852,7,1.485707699903287,1.6662822999060154,1,0.011218799976631999,0.013137000030837953,,,54.0,66.0,98735,60.0,
77,-77,-45,20,10,330,8,,,,,,,,,,,session,3977.9975257000187,168.0,2.0,72.0,0.029327360000000014,4,1.1496935000177473,1.3497706000925973,1,0.01138320006430149,0.013217400060966611,0,0.41615999990608543,0.01144689996726811,,,48.0,69.0,98735,60.0,
-77,77,0,20,11,331,5,,,,,,,,,,,session,3985.987900300068,174.0,2.0,72.0,0.029327360000000014,3,0.7345815000589937,1.0024789000162855,6,0.3682801000541076,0.5521783999865875,0,0.011268700007349253,0.01317579997703433,,,51.0,69.0,98735,60.0,
77,77,90,20,12,332,3,,,,,,,,,,,session,3993.9033245000755,132.0,2.0,72.0,0.029327360000000014,5,0.6789082000032067,0.8599262000061572,6,0.011838399921543896,0.013736199936829507,1,0.4671770000131801,0.011006599990651011,,,63.0,63.0,98735,60.0,
77,77,45,20,13,333,2,,,,,,,,,,,session,4001.6370461999904,126.0,2.0,72.0,0.029327360000000014,5,0.9204614000627771,1.1701312999939546,6,0.011485800030641258,0.013384200050495565,0,0.7681863999459893,0.9996480999980122,,,72.0,51.0,98735,60.0,
-77,77,90,20,14,334,7,,,,,,,,,,,session,4009.4212327999994,126.0,2.0,72.0,0.029327360000000014,2,1.0185259999707341,1.218822699971497,6,0.011867400025948882,0.013766500051133335,0,0.011023400002159178,0.012911899946630001,,,72.0,66.0,98735,60.0,
