x,y,orientation,.thisRepN,.thisTrialN,.thisN,.thisIndex,.stepSize,.intensity,image_name,global_start_time,global_end_time,pressKey,pressRT,releaseRT,image_started,image_ended,name,globalTime,fixation_dur,stimulation_dur,post_fixation,opacity,locationResponse_pressKey,locationResponse_pressRT,locationResponse_releaseRT,orientationResponse_pressKey,orientationResponse_pressRT,orientationResponse_releaseRT,pasResponse_pressKey,pasResponse_pressRT,pasResponse_releaseRT,.response,finalOpacity,postLoc,postOri,ID,frameRate,
,,,0,-1,-1,0,0.0969100130080564,None,materials/instructions\1_welcome.png,2.5568528000003425,78.34274929999083,0,75.66749790000904,75.78427960000408,0.07486490000155754,75.78816690000531,,,,,,,,,,,,,,,,,,,,98754,60.0,
,,,0,-1,-1,0,0.0969100130080564,None,materials/instructions\2_instruction.png,78.3977453999978,111.02089269999124,0,32.50420199999644,32.62116290000267,0.016008399994461797,32.627866599999834,,,,,,,,,,,,,,,,,,,,98754,60.0,
,,,0,-1,-1,0,0.0969100130080564,None,materials/instructions\3_location_demo.png,111.07446069999423,129.5336563000019,0,18.39050639999914,18.457180099998368,0.015760900001623668,18.467854100003024,,,,,,,,,,,,,,,,,,,,98754,60.0,
,,,0,-1,-1,0,0.0969100130080564,None,materials/instructions\4_orientation_demo.png,129.60392719999072,166.26008300000103,0,36.587283100001514,36.654003799994825,0.01965560000098776,36.66186990001006,,,,,,,,,,,,,,,,,,,,98754,60.0,
,,,0,-1,-1,0,0.0969100130080564,None,materials/instructions\5_pas_demo.png,166.31359059999522,180.9382190000033,0,14.541090900005656,14.622522200006642,0.01715259999036789,14.630439699991257,,,,,,,,,,,,,,,,,,,,98754,60.0,
-152,152,-45,0,-1,-1,0,0.0969100130080564,None,,,,,,,,,session,180.95373009999457,180.0,2.0,72.0,1.0,2,0.8653635999944527,0.9803034999931697,1,2.293749599994044,2.410375199993723,6,2.877978400007123,3.0015443000011146,,,,,98754,60.0,
152,152,-45,0,-1,-1,0,0.0969100130080564,None,,,,,,,,,session,191.7414931999956,168.0,2.0,72.0,1.0,5,2.5642516000079922,2.6445835000049556,1,1.489320200009388,1.6065129000053275,7,1.355517999996664,1.489881300003617,,,,,98754,60.0,
152,152,90,0,-1,-1,0,0.0969100130080564,None,,,,,,,,,session,202.22498529999575,168.0,2.0,72.0,1.0,5,1.4720732999994652,1.588782299993909,6,1.7424597999925027,1.8440088999923319,7,1.259137799992459,1.3425780999968993,,,,,98754,60.0,
152,152,45,0,-1,-1,0,0.0969100130080564,None,,,,,,,,,session,211.19632560000173,174.0,2.0,72.0,1.0,5,1.4212039999983972,1.538007800001651,7,1.6384340000076918,1.7708121000032406,7,1.2399461999884807,1.4235722000012174,,,,,98754,60.0,
152,152,0,0,-1,-1,0,0.0969100130080564,None,,,,,,,,,session,220.7219952000014,162.0,2.0,72.0,1.0,5,1.0412610000057612,1.1579184000001987,0,2.2609850999870105,2.361090599995805,7,1.1789512000104878,1.2456623000034597,,,,,98754,60.0,
,,,0,-1,-1,0,0.0969100130080564,None,materials/instructions\10_staircase_start.png,229.61693899999955,251.5425794000039,0,21.807205799996154,21.923874399988563,0.012447299988707528,21.93233139999211,,,,,,,,,,,,,,,,,,,,98754,60.0,
,,,0,0,-1,0,0.0969100130080564,0.4,,,,,,,,,staircase,251.55773069999123,180.0,2.0,72.0,0.4,,,,0,1.3229162000061478,1.4073802000057185,,,,1,,,,98754,60.0,
,,,0,1,-1,0,0.0969100130080564,0.32,,,,,,,,,staircase,257.28108559999964,156.0,2.0,72.0,0.32,,,,7,1.2576264000090305,1.3749032000050647,,,,1,,,,98754,60.0,
,,,0,2,-1,0,0.0969100130080564,0.256,,,,,,,,,staircase,263.15688009999576,174.0,2.0,72.0,0.256,,,,0,0.5087492000020575,0.6067818000010448,,,,1,,,,98754,60.0,
,,,0,3,-1,0,0.0969100130080564,0.2048,,,,,,,,,staircase,267.9718983999919,156.0,2.0,72.0,0.2048,,,,6,0.9671219000010751,1.0342014999914682,,,,1,,,,98754,60.0,
,,,0,4,-1,0,0.0969100130080564,0.16384,,,,,,,,,staircase,272.9106718999974,180.0,2.0,72.0,0.16384,,,,6,0.810252399998717,0.9104398000054061,,,,1,,,,98754,60.0,
,,,0,5,-1,0,0.0969100130080564,0.13107200000000002,,,,,,,,,staircase,278.1302946999931,150.0,2.0,72.0,0.13107200000000002,,,,7,1.2396418999996968,1.3226479000004474,,,,1,,,,98754,60.0,
,,,0,6,-1,0,0.0969100130080564,0.10485760000000002,,,,,,,,,staircase,283.78999699999986,126.0,2.0,72.0,0.10485760000000002,,,,1,0.6390493000071729,0.7228251000051387,,,,1,,,,98754,60.0,
,,,0,7,-1,0,0.0969100130080564,0.08388608000000002,,,,,,,,,staircase,287.9396052999946,138.0,2.0,72.0,0.08388608000000002,,,,1,1.2627204000018537,1.4128689999924973,,,,1,,,,98754,60.0,
,,,0,8,-1,0,0.0969100130080564,0.06710886400000002,,,,,,,,,staircase,292.9577907999919,162.0,2.0,72.0,0.06710886400000002,,,,1,0.4645701999979792,0.5312037999974564,,,,1,,,,98754,60.0,
,,,0,9,-1,0,0.0969100130080564,0.053687091200000016,,,,,,,,,staircase,297.49622010000166,180.0,2.0,72.0,0.053687091200000016,,,,0,0.8592403999937233,0.9914170999982161,,,,1,,,,98754,60.0,
,,,0,10,-1,0,0.0969100130080564,0.04294967296000001,,,,,,,,,staircase,302.8071130000026,138.0,2.0,72.0,0.04294967296000001,,,,7,0.8941506000119261,1.0442269000050146,,,,1,,,,98754,60.0,
,,,0,11,-1,0,0.0969100130080564,0.034359738368000006,,,,,,,,,staircase,307.90546539999195,150.0,2.0,72.0,0.034359738368000006,,,,6,1.3938484999962384,1.4604438999958802,,,,1,,,,98754,60.0,
,,,0,12,-1,0,0.0969100130080564,0.027487790694400004,,,,,,,,,staircase,313.1740007999906,138.0,2.0,72.0,0.027487790694400004,,,,0,0.6783404000016162,0.8268891000043368,,,,1,,,,98754,60.0,
,,,0,13,-1,0,0.0969100130080564,0.021990232555520003,,,,,,,,,staircase,317.61062449999736,174.0,2.0,72.0,0.021990232555520003,,,,1,4.050411799995345,4.138539000006858,,,,0,,,,98754,60.0,
,,,0,14,-1,0,0.0969100130080564,0.027487790694400004,,,,,,,,,staircase,325.95715099999506,162.0,2.0,72.0,0.027487790694400004,,,,1,1.0784396000090055,1.163874100006069,,,,1,,,,98754,60.0,
,,,0,15,-1,0,0.0969100130080564,0.021990232555520003,,,,,,,,,staircase,331.25985219998984,168.0,2.0,72.0,0.021990232555520003,,,,6,3.5247884999989765,3.59369510000397,,,,0,,,,98754,60.0,
,,,0,16,-1,0,0.0969100130080564,0.027487790694400004,,,,,,,,,staircase,338.97840619999624,138.0,2.0,72.0,0.027487790694400004,,,,0,4.337904400003026,4.471282300000894,,,,0,,,,98754,60.0,
,,,0,17,-1,0,0.0969100130080564,0.034359738368000006,,,,,,,,,staircase,347.0908950000012,162.0,2.0,72.0,0.034359738368000006,,,,6,1.7303825999988476,1.7983138999989023,,,,1,,,,98754,60.0,
,,,0,18,-1,0,0.0969100130080564,0.027487790694400004,,,,,,,,,staircase,353.32559890000266,150.0,2.0,72.0,0.027487790694400004,,,,1,2.146601800006465,2.2623146999976598,,,,0,,,,98754,60.0,
,,,0,19,-1,0,0.0969100130080564,0.034359738368000006,,,,,,,,,staircase,359.3923805999948,168.0,2.0,72.0,0.034359738368000006,,,,0,0.5778869999921881,0.6954979000001913,,,,1,,,,98754,60.0,
,,,0,20,-1,0,0.0969100130080564,0.027487790694400004,,,,,,,,,staircase,364.19512979999126,138.0,2.0,72.0,0.027487790694400004,,,,7,2.1370169000001624,2.270282199999201,,,,0,,,,98754,60.0,
,,,0,21,-1,0,0.0969100130080564,0.034359738368000006,,,,,,,,,staircase,370.0742040999903,180.0,2.0,72.0,0.034359738368000006,,,,1,5.067169999994803,5.18381760000193,,,,0,,,,98754,60.0,
,,,0,22,-1,0,0.0969100130080564,0.042949672960000004,,,,,,,,,staircase,379.7597233999986,126.0,2.0,72.0,0.042949672960000004,,,,7,1.1492231000011088,1.2651172000041697,,,,1,,,,98754,60.0,
,,,0,23,-1,0,0.0969100130080564,0.034359738368000006,,,,,,,,,staircase,384.4293816999998,126.0,2.0,72.0,0.034359738368000006,,,,7,0.5425188000081107,0.6267385000101058,,,,1,,,,98754,60.0,
,,,0,24,-1,0,0.0969100130080564,0.027487790694400004,,,,,,,,,staircase,388.48137199999474,168.0,2.0,72.0,0.027487790694400004,,,,7,0.27143320000323,0.38454290000663605,,,,1,,,,98754,60.0,
,,,0,25,-1,0,0.0969100130080564,0.021990232555520003,,,,,,,,,staircase,393.6044203999918,168.0,2.0,72.0,0.021990232555520003,,,,1,3.8465216000040527,3.9802652999933343,,,,1,,,,98754,60.0,
,,,0,26,-1,0,0.0969100130080564,0.017592186044416,,,,,,,,,staircase,401.6926986000035,156.0,2.0,72.0,0.017592186044416,,,,6,2.948813599999994,3.0476625000010245,,,,1,,,,98754,60.0,
,,,0,27,-1,0,0.0969100130080564,0.014073748835532801,,,,,,,,,staircase,408.66423270000087,132.0,2.0,72.0,0.014073748835532801,,,,0,1.1794856000051368,1.3293678000045475,,,,1,,,,98754,60.0,
,,,0,28,-1,0,0.0969100130080564,0.01125899906842624,,,,,,,,,staircase,413.50770619999093,168.0,2.0,72.0,0.01125899906842624,,,,7,1.3945464999997057,1.5280033999879379,,,,1,,,,98754,60.0,
,,,0,29,-1,0,0.0969100130080564,0.009007199254740993,,,,,,,,,staircase,419.52388389999396,180.0,2.0,72.0,0.009007199254740993,,,,1,0.6915869999938877,0.8255283999897074,,,,0,,,,98754,60.0,
,,,0,30,-1,0,0.0969100130080564,0.01125899906842624,,,,,,,,,staircase,424.6593639999919,126.0,2.0,72.0,0.01125899906842624,,,,6,0.597305100003723,0.6964715000067372,,,,0,,,,98754,60.0,
,,,0,31,-1,0,0.0969100130080564,0.014073748835532801,,,,,,,,,staircase,428.7620447999943,126.0,2.0,72.0,0.014073748835532801,,,,1,0.5309435999952257,0.6641774000017904,,,,0,,,,98754,60.0,
,,,0,32,-1,0,0.0969100130080564,0.017592186044416,,,,,,,,,staircase,432.8349512999994,138.0,2.0,72.0,0.017592186044416,,,,7,0.3744211000012001,0.5062603999977,,,,0,,,,98754,60.0,
,,,0,33,-1,0,0.0969100130080564,0.021990232555520003,,,,,,,,,staircase,437.54243990000396,150.0,2.0,72.0,0.021990232555520003,,,,1,0.4156615999963833,0.5490609999978915,,,,1,,,,98754,60.0,
,,,0,34,-1,0,0.0969100130080564,0.017592186044416,,,,,,,,,staircase,441.9260898999928,168.0,2.0,72.0,0.017592186044416,,,,6,0.6787198000092758,0.7788795000087703,,,,0,,,,98754,60.0,
,,,0,35,-1,0,0.0969100130080564,0.021990232555520003,,,,,,,,,staircase,446.8090735000005,138.0,2.0,72.0,0.021990232555520003,,,,0,0.42997789999935776,0.5319191000016872,,,,0,,,,98754,60.0,
,,,0,36,-1,0,0.0969100130080564,0.027487790694400004,,,,,,,,,staircase,450.94762289999926,162.0,2.0,72.0,0.027487790694400004,,,,7,0.5447202000068501,0.6614399999962188,,,,1,,,,98754,60.0,
,,,0,37,-1,0,0.0969100130080564,0.021990232555520003,,,,,,,,,staircase,455.6159808999946,180.0,2.0,72.0,0.021990232555520003,,,,1,0.9807693999900948,1.0948886999976821,,,,0,,,,98754,60.0,
,,,0,38,-1,0,0.0969100130080564,0.027487790694400004,,,,,,,,,staircase,461.6230177999969,132.0,2.0,72.0,0.027487790694400004,,,,6,0.49262889999954496,0.5943464999872958,,,,0,,,,98754,60.0,
,,,0,39,-1,0,0.0969100130080564,0.034359738368000006,,,,,,,,,staircase,465.7425929000019,174.0,2.0,72.0,0.034359738368000006,,,,0,0.6970127999957185,0.7806023999874014,,,,0,,,,98754,60.0,
,,,0,40,-1,0,0.0969100130080564,0.042949672960000004,,,,,,,,,staircase,470.7276295999909,150.0,2.0,72.0,0.042949672960000004,,,,6,0.7637295999884373,0.8967185999936191,,,,0,,,,98754,60.0,
,,,0,41,-1,0,0.0969100130080564,0.05368709120000001,,,,,,,,,staircase,475.4330609000026,180.0,2.0,72.0,0.05368709120000001,,,,7,1.4396162000048207,1.5522457000042778,,,,1,,,,98754,60.0,
,,,0,42,-1,0,0.0969100130080564,0.042949672960000004,,,,,,,,,staircase,481.687826399997,144.0,2.0,72.0,0.042949672960000004,,,,0,1.514997799997218,1.6487158000090858,,,,0,,,,98754,60.0,
,,,0,43,-1,0,0.0969100130080564,0.05368709120000001,,,,,,,,,staircase,487.041410299993,168.0,2.0,72.0,0.05368709120000001,,,,7,0.6557412999973167,0.7558437999978196,,,,1,,,,98754,60.0,
,,,0,44,-1,0,0.0969100130080564,0.042949672960000004,,,,,,,,,staircase,491.91131559999485,180.0,2.0,72.0,0.042949672960000004,,,,0,0.5422591000096872,0.642451899999287,,,,1,,,,98754,60.0,
,,,0,45,-1,0,0.0969100130080564,0.034359738368000006,,,,,,,,,staircase,496.88253439999244,144.0,2.0,72.0,0.034359738368000006,,,,7,1.4282235999999102,1.5399438999884296,,,,0,,,,98754,60.0,
,,,0,46,-1,0,0.0969100130080564,0.042949672960000004,,,,,,,,,staircase,502.1706425000011,138.0,2.0,72.0,0.042949672960000004,,,,1,0.6381658999889623,0.7554201999882935,,,,1,,,,98754,60.0,
,,,0,47,-1,0,0.0969100130080564,0.034359738368000006,,,,,,,,,staircase,506.857293699999,180.0,2.0,72.0,0.034359738368000006,,,,7,0.39494890000787564,0.5114751000073738,,,,1,,,,98754,60.0,
,,,0,48,-1,0,0.0969100130080564,0.027487790694400004,,,,,,,,,staircase,511.67420850000053,150.0,2.0,72.0,0.027487790694400004,,,,1,0.5465807000000495,0.6966928999900119,,,,1,,,,98754,60.0,
,,,0,49,-1,0,0.0969100130080564,0.021990232555520003,,,,,,,,,staircase,516.1781511000008,174.0,2.0,72.0,0.021990232555520003,,,,6,1.262446299995645,1.3290928999922471,,,,0,,,,98754,60.0,
,,,0,50,-1,0,0.0969100130080564,0.027487790694400004,,,,,,,,,staircase,521.7156461999984,180.0,2.0,72.0,0.027487790694400004,,,,0,0.9396085999906063,1.0536388000036823,,,,0,,,,98754,60.0,
,,,0,51,-1,0,0.0969100130080564,0.034359738368000006,,,,,,,,,staircase,527.8069169999944,180.0,2.0,72.0,0.034359738368000006,,,,7,1.8931953999999678,2.00889919999463,,,,1,,,,98754,60.0,
,,,0,52,-1,0,0.0969100130080564,0.027487790694400004,,,,,,,,,staircase,534.1249620000017,132.0,2.0,72.0,0.027487790694400004,,,,1,1.3162766000023112,1.4654403000022285,,,,0,,,,98754,60.0,
,,,0,53,-1,0,0.0969100130080564,0.034359738368000006,,,,,,,,,staircase,539.0952661999909,144.0,2.0,72.0,0.034359738368000006,,,,6,1.5832061999972211,1.6853933000093093,,,,1,,,,98754,60.0,
,,,0,54,-1,0,0.0969100130080564,0.027487790694400004,,,,,,,,,staircase,544.4853411999939,132.0,2.0,72.0,0.027487790694400004,,,,0,1.0350748999917414,1.1681760999927064,,,,0,,,,98754,60.0,
,,,0,55,-1,0,0.0969100130080564,0.034359738368000006,,,,,,,,,staircase,549.7564979000017,174.0,2.0,72.0,0.034359738368000006,,,,6,0.6290851999947336,0.7307696000061696,,,,1,,,,98754,60.0,
,,,0,56,-1,0,0.0969100130080564,0.027487790694400004,,,,,,,,,staircase,554.709016599998,150.0,2.0,72.0,0.027487790694400004,,,,1,1.0861445000045933,1.236750399999437,,,,0,,,,98754,60.0,
,,,0,57,-1,0,0.0969100130080564,0.034359738368000006,,,,,,,,,staircase,559.7789396000007,180.0,2.0,72.0,0.034359738368000006,,,,7,1.1606424000055995,1.276478900006623,,,,1,,,,98754,60.0,
,,,0,58,-1,0,0.0969100130080564,0.027487790694400004,,,,,,,,,staircase,565.3656013,168.0,2.0,72.0,0.027487790694400004,,,,7,1.5705228000006173,1.6561514000059105,,,,1,,,,98754,60.0,
,,,0,59,-1,0,0.0969100130080564,0.021990232555520003,,,,,,,,,staircase,571.7767105999956,132.0,2.0,72.0,0.021990232555520003,,,,0,1.418011200003093,1.5010832000116352,,,,0,,,,98754,60.0,
,,,0,60,-1,0,0.0969100130080564,0.027487790694400004,,,,,,,,,staircase,576.7918616999959,180.0,2.0,72.0,0.027487790694400004,,,,7,1.0579783000139287,1.1576845000090543,,,,1,,,,98754,60.0,
,,,0,61,-1,0,0.0969100130080564,0.021990232555520003,,,,,,,,,staircase,582.2628434999933,168.0,2.0,72.0,0.021990232555520003,,,,1,2.7249359999987064,2.891224899998633,,,,0,,,,98754,60.0,
,,,0,62,-1,0,0.0969100130080564,0.027487790694400004,,,,,,,,,staircase,589.2672860000021,132.0,2.0,72.0,0.027487790694400004,,,,6,0.755093300002045,0.8693001000065124,,,,0,,,,98754,60.0,
,,,0,63,-1,0,0.0969100130080564,0.034359738368000006,,,,,,,,,staircase,594.2074438999989,162.0,2.0,72.0,0.034359738368000006,,,,0,0.7589405999897281,0.8921010999911232,,,,0,,,,98754,60.0,
,,,0,64,-1,0,0.0969100130080564,0.042949672960000004,,,,,,,,,staircase,599.1102379999938,180.0,2.0,72.0,0.042949672960000004,,,,7,0.45518689999880735,0.5550886999990325,,,,1,,,,98754,60.0,
,,,0,65,-1,0,0.0969100130080564,0.034359738368000006,,,,,,,,,staircase,603.9789083999931,162.0,2.0,72.0,0.034359738368000006,,,,1,0.4954098000016529,0.6428442000033101,,,,1,,,,98754,60.0,
,,,0,66,-1,0,0.0969100130080564,0.027487790694400004,,,,,,,,,staircase,608.6307968000037,138.0,2.0,72.0,0.027487790694400004,,,,6,0.50604839999869,0.687027299994952,,,,1,,,,98754,60.0,
,,,0,67,-1,0,0.0969100130080564,0.021990232555520003,,,,,,,,,staircase,613.1905893999938,162.0,2.0,72.0,0.021990232555520003,,,,1,0.44652170001063496,0.5945570000039879,,,,1,,,,98754,60.0,
,,,0,68,-1,0,0.0969100130080564,0.017592186044416,,,,,,,,,staircase,617.9243535999994,144.0,2.0,72.0,0.017592186044416,,,,6,0.5914274999959162,0.6906294000073103,,,,0,,,,98754,60.0,
,,,0,69,-1,0,0.0969100130080564,0.021990232555520003,,,,,,,,,staircase,622.3424375000031,156.0,2.0,72.0,0.021990232555520003,,,,1,0.5104291999887209,0.6249958999978844,,,,0,,,,98754,60.0,
,,,0,-1,-1,0,,,materials/instructions\11_session_start.png,626.9026366999897,644.2919497999974,0,17.27041550001013,17.387221800003317,0.012782899997546338,17.394721399992704,,,,,,,,,,,,,,,,,,,,98754,60.0,
,,,0,-1,-1,0,,,,,,,,,,,,,,,,,,,,,,,,,,,0.032397797307187205,,,98754,60.0,
-152,152,-45,0,0,0,4,,,,,,,,,,,session,644.3083987999998,156.0,2.0,72.0,0.032397797307187205,5,2.156020399997942,2.288309900002787,1,1.8451705000043148,1.9451943000021856,0,2.25434069999028,2.3670637000032,,,69.0,63.0,98754,60.0,
152,152,45,0,1,1,2,,,,,,,,,,,session,657.17501359999,138.0,2.0,72.0,0.032397797307187205,5,1.0764922999951523,1.1597860000038054,7,1.3113260999962222,1.411742600001162,1,2.5942313999985345,2.6951089999929536,,,69.0,57.0,98754,60.0,
-152,-152,-45,0,2,2,12,,,,,,,,,,,session,668.5309774999914,144.0,2.0,72.0,0.032397797307187205,3,1.5652971000090474,1.681396500003757,1,1.478419599996414,1.5788437000010163,1,1.774208799994085,1.8863495999976294,,,63.0,54.0,98754,60.0,
-152,-152,45,0,3,3,14,,,,,,,,,,,session,679.4919919999957,144.0,2.0,72.0,0.032397797307187205,3,1.738131699996302,1.870203099999344,7,1.7129207000107272,1.7939521000080276,1,0.7070410000014817,0.8212970000022324,,,60.0,60.0,98754,60.0,
-152,-152,0,0,4,4,13,,,,,,,,,,,session,689.9793383999931,138.0,2.0,72.0,0.032397797307187205,3,3.017282700006035,3.2523154000082286,6,0.6429262000019662,0.7263627999927849,0,1.2240477000013925,1.3350606000021799,,,66.0,54.0,98754,60.0,
152,152,-45,0,5,5,0,,,,,,,,,,,session,701.0746779000037,174.0,2.0,72.0,0.032397797307187205,4,1.296566899996833,1.4974852000013925,0,0.5844580999983009,0.7024740000051679,0,0.6857234000053722,0.8192342999973334,,,54.0,66.0,98754,60.0,
-152,152,45,0,6,6,6,,,,,,,,,,,session,710.6953966000001,162.0,2.0,72.0,0.032397797307187205,5,2.6242034999886528,2.7746277999976883,7,0.9468938000063645,1.0803559000050882,0,0.7280451999977231,0.8281105000060052,,,54.0,63.0,98754,60.0,
-152,152,90,0,7,7,7,,,,,,,,,,,session,721.4862764999998,156.0,2.0,72.0,0.032397797307187205,2,1.257227199996123,1.2744058999960544,6,1.333049499997287,1.3837136999936774,1,1.4635911999939708,1.5596497999940766,,,57.0,54.0,98754,60.0,
-152,152,0,0,8,8,5,,,,,,,,,,,session,732.275936799997,162.0,2.0,72.0,0.032397797307187205,5,0.9451811000035377,1.0944211000023643,7,0.5437053000059677,0.6931907999969553,0,0.37253140000393614,0.48928420001175255,,,54.0,66.0,98754,60.0,
152,-152,45,0,9,9,10,,,,,,,,,,,session,740.720696000004,162.0,2.0,72.0,0.032397797307187205,4,0.5233915999997407,0.6898790999985067,7,1.9818854999903124,2.136380600000848,1,2.5958176999993157,2.71255180001026,,,54.0,66.0,98754,60.0,
152,-152,-45,0,10,10,8,,,,,,,,,,,session,752.6965655999957,144.0,2.0,72.0,0.032397797307187205,4,1.5351729999965755,1.718965099993511,1,1.4413481999945361,1.5581947999889962,1,0.661819300003117,0.7961306000070181,,,51.0,66.0,98754,60.0,
152,-152,0,0,11,11,9,,,,,,,,,,,session,762.5852058000019,162.0,2.0,72.0,0.032397797307187205,4,0.6709002999996301,0.8426623999985168,0,1.1606803000031505,1.2439903000049526,1,1.3453142999933334,1.4303109999891603,,,72.0,60.0,98754,60.0,
152,-152,90,0,12,12,11,,,,,,,,,,,session,772.6298206999927,138.0,2.0,72.0,0.032397797307187205,5,1.142802300004405,1.292957199999364,1,0.6420928000006825,0.7931200000020908,0,0.3785996999940835,0.47861120000015944,,,54.0,48.0,98754,60.0,
152,152,90,0,13,13,3,,,,,,,,,,,session,780.6512487,150.0,2.0,72.0,0.032397797307187205,5,0.4799300000013318,0.612095100004808,6,1.7299061999947298,1.8799952999979723,1,0.35846429999219254,0.4683636999980081,,,66.0,69.0,98754,60.0,
152,152,0,0,14,14,1,,,,,,,,,,,session,789.8259419999958,150.0,2.0,72.0,0.032397797307187205,4,0.9092173000099137,1.109400800007279,7,2.537072800012538,2.670411900006002,0,0.46271529998921324,0.6290611000003992,,,66.0,48.0,98754,60.0,
-152,-152,90,0,15,15,15,,,,,,,,,,,session,800.3139833000023,162.0,2.0,72.0,0.032397797307187205,5,0.9345948999980465,1.0825789000082295,6,0.4115858000004664,0.5283954999904381,0,0.36161429999629036,0.46167220000643283,,,48.0,48.0,98754,60.0,
-152,-152,45,1,0,16,14,,,,,,,,,,,session,808.1365807999973,180.0,2.0,72.0,0.032397797307187205,3,1.4280435999971814,1.5087039999925764,1,1.4658226999890758,1.5824748000013642,1,0.5079094999964582,0.6259177000029013,,,69.0,54.0,98754,60.0,
-152,152,45,1,1,17,6,,,,,,,,,,,session,818.9295481000008,162.0,2.0,72.0,0.032397797307187205,2,1.4079192999924999,1.5079945999896154,6,2.948787399989669,3.0660150999901816,1,1.42896470001142,1.5290374000032898,,,54.0,72.0,98754,60.0,
-152,152,90,1,2,18,7,,,,,,,,,,,session,831.2866429999995,162.0,2.0,72.0,0.032397797307187205,2,0.9287780000013299,1.0321762999956263,6,0.5124459000071511,0.6291912000015145,1,1.6748391000000993,1.7893207000015536,,,69.0,69.0,98754,60.0,
-152,152,-45,1,3,19,4,,,,,,,,,,,session,841.7627327999944,162.0,2.0,72.0,0.032397797307187205,2,0.48958959999436047,0.6220994000032078,1,1.1497534999944037,1.3027797999966424,1,0.5467586999875493,0.6636508999945363,,,54.0,66.0,98754,60.0,
-152,152,-45,1,3,19,4,,,materials/instructions\12_break.png,850.5444545999926,863.210067699998,0,12.563867799995933,12.663811499995063,0.02505620000010822,12.671782799996436,,,,,,,,,,,,,,,,,,,,98754,60.0,
152,-152,-45,1,4,20,8,,,,,,,,,,,session,863.226482500002,156.0,2.0,72.0,0.032397797307187205,4,0.7813480000040727,0.9978743000101531,7,2.9641230999986874,3.114192000008188,1,2.4858199000009336,2.6431532999995397,,,66.0,66.0,98754,60.0,
-152,-152,90,1,5,21,15,,,,,,,,,,,session,876.2485929999966,144.0,2.0,72.0,0.032397797307187205,3,1.4025054999947315,1.519443900004262,6,1.2091653000097722,1.259018200013088,1,1.4105072999955155,1.5107753000047524,,,57.0,57.0,98754,60.0,
152,152,90,1,6,22,3,,,,,,,,,,,session,886.9632466000039,162.0,2.0,72.0,0.032397797307187205,4,0.7287046999990707,0.8788013000012143,1,1.5929452999989735,1.693194899999071,1,2.8173223000048893,2.9350425000011455,,,69.0,54.0,98754,60.0,
152,152,0,1,7,23,1,,,,,,,,,,,session,898.6724286999961,174.0,2.0,72.0,0.032397797307187205,5,0.43068470001162495,0.5806501000042772,0,1.3777217000024393,1.4762057999905664,1,2.5128457999962848,2.612981199999922,,,51.0,60.0,98754,60.0,
152,-152,0,1,8,24,9,,,,,,,,,,,session,910.1479003999993,138.0,2.0,72.0,0.032397797307187205,4,0.46499400000902824,0.6295924000005471,7,1.1956147000018973,1.3948430000018561,1,0.49454709999554325,0.5945760000031441,,,57.0,63.0,98754,60.0,
-152,152,0,1,9,25,5,,,,,,,,,,,session,918.5230001000018,174.0,2.0,72.0,0.032397797307187205,2,0.9058069000020623,1.0195481999980984,0,1.159862600004999,1.3266574000008404,1,0.6160221999889472,0.6990648999926634,,,60.0,57.0,98754,60.0,
152,-152,45,1,10,26,10,,,,,,,,,,,session,928.4494511999947,156.0,2.0,72.0,0.032397797307187205,5,1.2104415999929188,1.3606426999904215,1,2.5828112999879522,2.731430999992881,0,3.5145791999966605,3.614626700000372,,,69.0,57.0,98754,60.0,
152,152,-45,1,11,27,0,,,,,,,,,,,session,942.3224190999899,132.0,2.0,72.0,0.032397797307187205,5,0.6895974000071874,0.8365795999998227,1,1.0942470000009052,1.1913879000057932,1,1.8568040000100154,1.9876248000073247,,,63.0,72.0,98754,60.0,
-152,-152,0,1,12,28,13,,,,,,,,,,,session,952.8467560999998,174.0,2.0,72.0,0.032397797307187205,5,1.048008600002504,1.2315873000043212,6,0.5178635000047507,0.6012847999954829,0,0.6257003000064287,0.7423653000005288,,,69.0,72.0,98754,60.0,
-152,-152,-45,1,13,29,12,,,,,,,,,,,session,962.1212787999975,168.0,2.0,72.0,0.032397797307187205,3,0.45387050000135787,0.6018192000046838,1,1.5604181000089739,1.6626068000041414,6,1.902277100001811,2.0877835000137566,,,57.0,51.0,98754,60.0,
152,152,45,1,14,30,2,,,,,,,,,,,session,972.9525748000015,168.0,2.0,72.0,0.032397797307187205,4,0.842369799996959,1.0962655000039376,7,0.4468154000060167,0.6324937000026694,0,0.3929439000057755,0.47885450000467245,,,63.0,72.0,98754,60.0,
152,-152,90,1,15,31,11,,,,,,,,,,,session,981.6701974000025,174.0,2.0,72.0,0.032397797307187205,4,0.7478593999985605,0.9146348999929614,6,0.4420673999993596,0.5258363000029931,0,0.35532899999816436,0.41842769998766016,,,72.0,60.0,98754,60.0,
-152,-152,90,2,0,32,15,,,,,,,,,,,session,990.0917660999985,144.0,2.0,72.0,0.032397797307187205,3,0.6778493000019807,0.7612311999982921,6,1.3065479999931995,1.45671179999772,6,1.9782323999970686,2.111740699998336,,,54.0,54.0,98754,60.0,
152,-152,45,2,1,33,10,,,,,,,,,,,session,1000.0821131999983,126.0,2.0,72.0,0.032397797307187205,4,1.3350881000078516,1.4858932000061031,6,2.0914190000039525,2.2083542000036687,6,0.011081299991928972,0.012978500002645887,,,69.0,48.0,98754,60.0,
-152,152,0,2,2,34,5,,,,,,,,,,,session,1009.3022063999961,132.0,2.0,72.0,0.032397797307187205,2,2.0242671000014525,2.1243262000061804,0,0.9625253999984125,1.0438254000036977,6,1.8092473999859067,1.9093152999994345,,,48.0,63.0,98754,60.0,
152,-152,-45,2,3,35,8,,,,,,,,,,,session,1020.4506984000036,168.0,2.0,72.0,0.032397797307187205,4,2.216618300008122,2.397181400010595,1,1.2127949999994598,1.3287376999942353,6,0.980106999995769,1.0636682999902405,,,69.0,66.0,98754,60.0,
152,152,-45,2,4,36,0,,,,,,,,,,,session,1031.7427847999934,174.0,2.0,72.0,0.032397797307187205,5,0.6212665000057314,0.7199891000054777,1,0.7733458999864524,0.9242490999895381,6,1.8598984999989625,1.9265222999965772,,,72.0,48.0,98754,60.0,
152,-152,90,2,5,37,11,,,,,,,,,,,session,1042.1807998000004,132.0,2.0,72.0,0.032397797307187205,4,0.9486418000014964,1.0655239000043366,1,3.192406199988909,3.2757581999903778,1,0.7759382000076585,0.8593049000046449,,,69.0,69.0,98754,60.0,
-152,152,45,2,6,38,6,,,,,,,,,,,session,1053.3404467999935,138.0,2.0,72.0,0.032397797307187205,2,2.5119307999993907,2.5929898000031244,7,1.7940609999932349,1.9775271999969846,6,0.4273661000042921,0.5439094000030309,,,66.0,60.0,98754,60.0,
152,-152,0,2,7,39,9,,,,,,,,,,,session,1064.9646772999986,126.0,2.0,72.0,0.032397797307187205,4,0.9475696000008611,1.114403500003391,0,0.7810504000080982,0.9142861000000266,6,1.1797312999988208,1.262825999991037,,,63.0,63.0,98754,60.0,
152,-152,0,2,7,39,9,,,materials/instructions\12_break.png,1073.9369999999908,1092.6006133999908,0,18.57832739999867,18.661579599996912,0.01942149999376852,18.66933049999352,,,,,,,,,,,,,,,,,,,,98754,60.0,
152,152,45,2,8,40,2,,,,,,,,,,,session,1092.6163807999983,162.0,2.0,72.0,0.032397797307187205,5,0.6374668000062229,0.7709047999960603,1,1.839832199999364,1.9394202999974368,1,0.8791627000027802,0.9791737000050489,,,48.0,54.0,98754,60.0,
-152,152,-45,2,9,41,4,,,,,,,,,,,session,1102.2001996000035,174.0,2.0,72.0,0.032397797307187205,2,1.2424694999936037,1.3439512999902945,1,1.2129363999993075,1.3298703999898862,1,1.264058600005228,1.3474699000071269,,,66.0,72.0,98754,60.0,
-152,-152,0,2,10,42,13,,,,,,,,,,,session,1112.8688183999911,126.0,2.0,72.0,0.032397797307187205,3,0.6512517999944976,0.8135767000057967,0,1.511089899999206,1.660952999998699,1,1.4601670999982161,1.5726336000079755,,,60.0,60.0,98754,60.0,
-152,-152,45,2,11,43,14,,,,,,,,,,,session,1122.4797144999902,156.0,2.0,72.0,0.032397797307187205,3,2.477447699988261,2.6593326999864075,7,1.9296926999959396,2.0630499999970198,1,1.2243317999964347,1.3254111999995075,,,57.0,51.0,98754,60.0,
152,152,90,2,12,44,3,,,,,,,,,,,session,1134.4014592000021,174.0,2.0,72.0,0.032397797307187205,5,0.4407333999988623,0.5741988000081619,6,1.6641409000003478,1.7472001999994973,1,1.1713827999919886,1.2588128999923356,,,57.0,63.0,98754,60.0,
152,152,0,2,13,45,1,,,,,,,,,,,session,1144.3513061999984,132.0,2.0,72.0,0.032397797307187205,5,1.0612022999994224,1.177948299999116,0,1.609812900001998,1.6936525000055553,1,2.4111907000042265,2.528833800010034,,,60.0,48.0,98754,60.0,
-152,152,90,2,14,46,7,,,,,,,,,,,session,1155.2180604000023,162.0,2.0,72.0,0.032397797307187205,2,0.41239120000682306,0.5087818000029074,6,1.27823329999228,1.378393099992536,1,0.3788369999965653,0.4622685999929672,,,63.0,60.0,98754,60.0,
-152,-152,-45,2,15,47,12,,,,,,,,,,,session,1163.7745243999962,132.0,2.0,72.0,0.032397797307187205,3,1.8575028000050224,1.9884050999971805,1,1.3740733000013279,1.490743599992129,1,4.605447399997502,4.686995399999432,,,69.0,54.0,98754,60.0,
152,-152,45,3,0,48,10,,,,,,,,,,,session,1178.2356416999974,162.0,2.0,72.0,0.032397797307187205,5,1.6920822999964003,1.8087939999968512,7,0.5250723000062862,0.6482786999986274,0,0.44144389999564737,0.5745857000001706,,,63.0,72.0,98754,60.0,
152,152,-45,3,1,49,0,,,,,,,,,,,session,1187.7340920999995,180.0,2.0,72.0,0.032397797307187205,5,1.163514200001373,1.2632009999942966,1,0.606481700000586,0.7242445000010775,1,0.6616473000030965,0.7608672999922419,,,54.0,48.0,98754,60.0,
-152,-152,90,3,2,50,15,,,,,,,,,,,session,1196.8155146999925,144.0,2.0,72.0,0.032397797307187205,3,0.7475049000058789,0.9995861000061268,6,0.6408189999929164,0.793196499987971,1,0.5294540000031702,0.6790809000085574,,,54.0,54.0,98754,60.0,
152,-152,0,3,3,51,9,,,,,,,,,,,session,1204.9385905999952,168.0,2.0,72.0,0.032397797307187205,4,0.4276334999885876,0.5558479000028456,0,0.7577960000053281,0.8913715999951819,1,0.9933873999980278,1.0941519000043627,,,72.0,66.0,98754,60.0,
-152,152,90,3,4,52,7,,,,,,,,,,,session,1214.2985099999933,168.0,2.0,72.0,0.032397797307187205,2,0.3971770999924047,0.5151603999984218,6,0.6617351000022609,0.811870400008047,1,3.3138200999965193,3.4147746000089683,,,72.0,51.0,98754,60.0,
152,152,0,3,5,53,1,,,,,,,,,,,session,1225.3391553999973,126.0,2.0,72.0,0.032397797307187205,5,0.9718301000102656,1.0041752999968594,1,1.2736681999958819,1.3860979000019142,0,2.0626682000001892,2.14620799999102,,,69.0,63.0,98754,60.0,
-152,-152,0,3,6,54,13,,,,,,,,,,,session,1235.6682199999923,168.0,2.0,72.0,0.032397797307187205,3,0.7568320999998832,0.9070184000011068,1,3.246792899997672,3.3640776999964146,1,2.800611700004083,2.8842703999980586,,,72.0,51.0,98754,60.0,
-152,-152,45,3,7,55,14,,,,,,,,,,,session,1249.1231327999994,144.0,2.0,72.0,0.032397797307187205,3,0.4371951000066474,0.6083840000064811,7,2.0084769999957643,2.1914986000047065,1,0.742567000008421,0.8091997000010451,,,57.0,54.0,98754,60.0,
-152,152,45,3,8,56,6,,,,,,,,,,,session,1258.6487822999916,150.0,2.0,72.0,0.032397797307187205,4,0.9949258999986341,1.1277019000117434,1,0.9128084999974817,1.0300707999995211,1,6.370747399996617,6.472048099996755,,,66.0,60.0,98754,60.0,
-152,-152,-45,3,9,57,12,,,,,,,,,,,session,1273.325604999991,144.0,2.0,72.0,0.032397797307187205,3,0.3810994999948889,0.514897299988661,1,1.6454092000058154,1.7453978000121424,1,1.5409507000003941,1.6590452999953413,,,54.0,63.0,98754,60.0,
152,-152,-45,3,10,58,8,,,,,,,,,,,session,1283.7168415999913,168.0,2.0,72.0,0.032397797307187205,4,0.4530187000054866,0.5697080000099959,1,0.7485372000082862,0.8821042000054149,1,1.6471700000111014,1.762885100004496,,,69.0,48.0,98754,60.0,
152,152,45,3,11,59,2,,,,,,,,,,,session,1293.1399390000006,126.0,2.0,72.0,0.032397797307187205,5,1.0708716999943135,1.2218708000000333,7,2.8565233999979682,3.006299000000581,1,0.949352399999043,1.049676599999657,,,48.0,63.0,98754,60.0,
152,152,45,3,11,59,2,,,materials/instructions\12_break.png,1303.9286802999995,1326.6149027999927,0,22.56731729999592,22.68422679998912,0.021888900009798817,22.69089390001318,,,,,,,,,,,,,,,,,,,,98754,60.0,
-152,152,0,3,12,60,5,,,,,,,,,,,session,1326.6301072999922,144.0,2.0,72.0,0.032397797307187205,2,1.371998499991605,1.4877672000002349,0,0.6638826999987941,0.7815398999955505,1,1.711343399991165,1.796024999988731,,,51.0,60.0,98754,60.0,
-152,152,-45,3,13,61,4,,,,,,,,,,,session,1336.4051336999983,180.0,2.0,72.0,0.032397797307187205,2,0.8499716999940574,0.9614810999919428,1,1.323659299989231,1.4569651999918278,1,0.5253534000075888,0.6087143000040669,,,48.0,54.0,98754,60.0,
152,-152,90,3,14,62,11,,,,,,,,,,,session,1345.651597899996,156.0,2.0,72.0,0.032397797307187205,4,2.0793299000069965,2.2453612000099383,6,1.9105619000038132,2.0432056999998167,1,0.5670558999991044,0.6670596999902045,,,57.0,54.0,98754,60.0,
152,152,90,3,15,63,3,,,,,,,,,,,session,1356.523668599999,156.0,2.0,72.0,0.032397797307187205,5,0.42485529999248683,0.507788699993398,6,0.5812814000091748,0.6958096000016667,1,0.48951870000746567,0.6005881000019144,,,48.0,57.0,98754,60.0,
152,152,45,4,0,64,2,,,,,,,,,,,session,1364.147032599998,150.0,2.0,72.0,0.032397797307187205,5,0.4921823000040604,0.6086980000109179,6,3.415359600010561,3.530296900004032,1,0.5594915000110632,0.6762874999985797,,,48.0,48.0,98754,60.0,
152,-152,0,4,1,65,9,,,,,,,,,,,session,1374.8011232999997,174.0,2.0,72.0,0.032397797307187205,4,0.4828512999956729,0.6663862999994308,0,1.927884200005792,2.029104000001098,1,0.8714990000007674,0.9715918000001693,,,57.0,63.0,98754,60.0,
-152,-152,0,4,2,66,13,,,,,,,,,,,session,1384.8191571999923,126.0,2.0,72.0,0.032397797307187205,3,1.5554420999978902,1.7042925999994623,0,0.7467399000015575,0.8467262000049232,1,0.37785629999416415,0.47976450000714976,,,69.0,57.0,98754,60.0,
152,152,0,4,3,67,1,,,,,,,,,,,session,1394.0838009,138.0,2.0,72.0,0.032397797307187205,5,2.1145289999985835,2.247842500000843,0,0.4825004999875091,0.5644800000009127,1,0.7283739999984391,0.828357699996559,,,66.0,48.0,98754,60.0,
152,-152,-45,4,4,68,8,,,,,,,,,,,session,1403.3728160000028,156.0,2.0,72.0,0.032397797307187205,4,0.5077099999907659,0.6795713000028627,1,3.4982926000084262,3.598204000008991,1,0.5663258999993559,0.6339522000052966,,,48.0,63.0,98754,60.0,
-152,152,45,4,5,69,6,,,,,,,,,,,session,1414.3047253999976,156.0,2.0,72.0,0.032397797307187205,4,0.8080975000048056,0.9742442999995546,1,0.5600826000008965,0.6935342000069795,0,0.3631052999990061,0.49556519999168813,,,51.0,48.0,98754,60.0,
-152,-152,-45,4,6,70,12,,,,,,,,,,,session,1422.1708237999992,168.0,2.0,72.0,0.032397797307187205,3,0.4615585999999894,0.5272669999976642,1,2.5692589999962365,2.70264610000595,1,0.45526350000000093,0.5589018000027863,,,48.0,63.0,98754,60.0,
152,-152,90,4,7,71,11,,,,,,,,,,,session,1432.0870024000033,144.0,2.0,72.0,0.032397797307187205,4,0.3645182000036584,0.5149373000022024,6,1.4282261000043945,1.5605977999948664,6,1.3989488999941386,1.5324609999952372,,,63.0,57.0,98754,60.0,
-152,-152,45,4,8,72,14,,,,,,,,,,,session,1441.5719878999953,138.0,2.0,72.0,0.032397797307187205,3,0.8977539999905275,1.0630329999985406,1,2.83101429999806,2.9478094999940367,0,0.48578339999949094,0.6195365000021411,,,51.0,51.0,98754,60.0,
-152,152,90,4,9,73,7,,,,,,,,,,,session,1451.6471347999905,126.0,2.0,72.0,0.032397797307187205,2,0.35586169999442063,0.4417689999972936,6,0.7125575999962166,0.828131400005077,1,1.1602285999979358,1.2765272999968147,,,60.0,66.0,98754,60.0,
152,152,-45,4,10,74,0,,,,,,,,,,,session,1460.3176508000033,156.0,2.0,72.0,0.032397797307187205,5,0.6452475999976741,0.728582900002948,1,0.6263221000117483,0.7598117000015918,1,0.5646770000021206,0.6331023999955505,,,57.0,57.0,98754,60.0,
152,152,90,4,11,75,3,,,,,,,,,,,session,1468.391449399991,144.0,2.0,72.0,0.032397797307187205,5,0.6458130999963032,0.769269099997473,6,0.9142816999956267,1.0191393999994034,1,0.846925400008331,0.9606794999999693,,,60.0,57.0,98754,60.0,
152,-152,45,4,12,76,10,,,,,,,,,,,session,1476.9504143999948,126.0,2.0,72.0,0.032397797307187205,4,0.3934488000086276,0.5945585000008577,7,2.203366100002313,2.388799400010612,1,0.7586114000005182,0.8589573999925051,,,54.0,66.0,98754,60.0,
-152,152,0,4,13,77,5,,,,,,,,,,,session,1486.3697855999926,174.0,2.0,72.0,0.032397797307187205,2,0.6496041999926092,0.8004144000005908,0,1.1116044000082184,1.247110000011162,1,1.2298187999986112,1.3356118999945465,,,48.0,51.0,98754,60.0,
-152,-152,90,4,14,78,15,,,,,,,,,,,session,1495.7537692999904,132.0,2.0,72.0,0.032397797307187205,3,0.3876371999940602,0.5220067999907769,6,1.6332248999970034,1.7831087999948068,6,0.011752399994293228,0.013641600002301857,,,66.0,63.0,98754,60.0,
-152,152,-45,4,15,79,4,,,,,,,,,,,session,1504.3546979999956,132.0,2.0,72.0,0.032397797307187205,2,0.6254196999943815,0.7088730999967083,1,0.7464834999991581,0.8804631999955745,1,1.7412920000060694,1.841381200007163,,,57.0,51.0,98754,60.0,
-152,152,-45,4,15,79,4,,,materials/instructions\12_break.png,1513.2685002999933,1536.122261299999,0,22.751802300001145,22.85181370000646,0.023290600001928397,22.859413700003643,,,,,,,,,,,,,,,,,,,,98754,60.0,
-152,152,0,5,0,80,5,,,,,,,,,,,session,1536.1380586000014,126.0,2.0,72.0,0.032397797307187205,5,0.6704719999979716,0.831573199990089,6,0.9719570000015665,1.0885783999983687,0,0.34238870000990573,0.5235692999995081,,,63.0,63.0,98754,60.0,
-152,-152,0,5,1,81,13,,,,,,,,,,,session,1544.3519150999928,162.0,2.0,72.0,0.032397797307187205,3,0.5295588000008138,0.7131516999943415,1,0.3445510000019567,0.4781564000004437,0,0.012084900008630939,0.013976000002003275,,,51.0,48.0,98754,60.0,
-152,-152,-45,5,2,82,12,,,,,,,,,,,session,1551.3713686999981,126.0,2.0,72.0,0.032397797307187205,3,0.5311172000074293,0.6813181000034092,1,0.543934100001934,0.6272240999969654,1,0.5576559000037378,0.6753227000008337,,,66.0,72.0,98754,60.0,
152,152,-45,5,3,83,0,,,,,,,,,,,session,1559.1929003999976,174.0,2.0,72.0,0.032397797307187205,5,0.5548261999938404,0.6739907000010135,1,0.9472592000092845,1.0623279999999795,6,0.7482045000069775,0.8484127999981865,,,63.0,57.0,98754,60.0,
152,152,45,5,4,84,2,,,,,,,,,,,session,1568.6510754999908,144.0,2.0,72.0,0.032397797307187205,5,0.527273800005787,0.6618242000113241,7,1.2795953000022564,1.4265217000065604,1,0.6125171999883605,0.7126465999899665,,,48.0,57.0,98754,60.0,
152,-152,-45,5,5,85,8,,,,,,,,,,,session,1577.0555915000004,150.0,2.0,72.0,0.032397797307187205,4,0.6611761999956798,0.8280874999909429,1,1.3425444999884348,1.4612346999929287,1,0.7520698000007542,0.8858589000010397,,,54.0,57.0,98754,60.0,
-152,-152,45,5,6,86,14,,,,,,,,,,,session,1586.0336678000021,162.0,2.0,72.0,0.032397797307187205,3,1.8393656999978703,1.9881502000062028,7,2.0985188000049675,2.2639262000011513,1,0.5034596000041347,0.6035492999944836,,,63.0,63.0,98754,60.0,
-152,-152,90,5,7,87,15,,,,,,,,,,,session,1597.1739204000041,180.0,2.0,72.0,0.032397797307187205,4,0.6969337999908021,0.8775000999885378,1,0.5397238000005018,0.6564963000128046,0,0.7383771000022534,0.8658728000009432,,,57.0,66.0,98754,60.0,
-152,152,90,5,8,88,7,,,,,,,,,,,session,1606.0994431,156.0,2.0,72.0,0.032397797307187205,2,0.8567651999910595,0.9900406999950064,6,0.8967894000088563,1.0301113000023179,6,1.5427677999978187,1.7092497999983607,,,69.0,48.0,98754,60.0,
-152,152,45,5,9,89,6,,,,,,,,,,,session,1616.3553911999916,150.0,2.0,72.0,0.032397797307187205,4,0.8267998999945121,1.0270119000051636,6,0.46163450001040474,0.6116404000058537,0,0.32759689999511465,0.44335899999714456,,,60.0,66.0,98754,60.0,
152,-152,90,5,10,90,11,,,,,,,,,,,session,1624.4773131999973,156.0,2.0,72.0,0.032397797307187205,4,0.5369970000028843,0.64928769999824,6,1.2071846999897389,1.3433836999902269,0,0.6935761000058847,0.8102237999992212,,,63.0,57.0,98754,60.0,
152,152,90,5,11,91,3,,,,,,,,,,,session,1633.501288799991,132.0,2.0,72.0,0.032397797307187205,4,0.8608009999879869,0.9769390000001295,1,0.34901630000968,0.4859456999984104,0,0.3473230999952648,0.49649439999484457,,,48.0,72.0,98754,60.0,
152,-152,45,5,12,92,10,,,,,,,,,,,session,1641.137588700003,156.0,2.0,72.0,0.032397797307187205,4,0.3959346000046935,0.5267219999950612,7,1.1948787000001175,1.3579952000000048,6,0.4765653999929782,0.5603697999904398,,,48.0,69.0,98754,60.0,
152,152,0,5,13,93,1,,,,,,,,,,,session,1649.5957744999905,132.0,2.0,72.0,0.032397797307187205,5,0.6066845000023022,0.7204525999986799,0,0.6036263000132749,0.6702503000124125,6,0.29148620000341907,0.4252089999936288,,,54.0,69.0,98754,60.0,
152,-152,0,5,14,94,9,,,,,,,,,,,session,1657.789985299998,150.0,2.0,72.0,0.032397797307187205,4,0.4086864999990212,0.5418094999913592,0,0.4959297000023071,0.5959417999983998,1,3.6057824000017717,3.6720941999956267,,,57.0,72.0,98754,60.0,
-152,152,-45,5,15,95,4,,,,,,,,,,,session,1668.7102042999904,168.0,2.0,72.0,0.032397797307187205,2,0.2667961999977706,0.3713026000041282,1,1.9825022000004537,2.0959341999987373,1,2.2443315999989863,2.3276433999999426,,,48.0,69.0,98754,60.0,
-152,-152,-45,6,0,96,12,,,,,,,,,,,session,1679.9886362999969,180.0,2.0,72.0,0.032397797307187205,3,0.42330939999374095,0.5067376999941189,1,0.7303545999893686,0.8295842999941669,6,1.0792253000108758,1.228361000001314,,,60.0,72.0,98754,60.0,
-152,-152,0,6,1,97,13,,,,,,,,,,,session,1689.2076566000032,168.0,2.0,72.0,0.032397797307187205,3,0.3946136000013212,0.6445407999999588,0,0.8499652999889804,0.9382315999973798,6,1.1061795999994501,1.2069488999986788,,,69.0,69.0,98754,60.0,
-152,152,0,6,2,98,5,,,,,,,,,,,session,1698.5695750000014,126.0,2.0,72.0,0.032397797307187205,4,0.8138122999953339,1.0138833999953931,7,0.3935106999997515,0.5268159999977797,0,0.44446790000074543,0.5939087000006111,,,51.0,57.0,98754,60.0,
-152,152,45,6,3,99,6,,,,,,,,,,,session,1706.0555203999975,156.0,2.0,72.0,0.032397797307187205,4,0.7279895999963628,0.8948204000043916,6,0.24299530001007952,0.41005109999969136,0,0.3949047000060091,0.5288943000050494,,,69.0,60.0,98754,60.0,
-152,152,45,6,3,99,6,,,materials/instructions\12_break.png,1714.1228822999983,1731.8381377000042,0,17.57996030000504,17.71317300001101,0.022231599999940954,17.721218600010616,,,,,,,,,,,,,,,,,,,,98754,60.0,
-152,152,90,6,4,100,7,,,,,,,,,,,session,1731.8540349999967,162.0,2.0,72.0,0.032397797307187205,4,2.226837099995464,2.393382299997029,1,0.6754511000035563,0.7420732000027783,0,0.43779019999783486,0.5555461999902036,,,72.0,72.0,98754,60.0,
152,152,-45,6,5,101,0,,,,,,,,,,,session,1742.120567799997,162.0,2.0,72.0,0.032397797307187205,4,0.8278725999989547,0.9926061000005575,1,2.15481799999543,2.2882659999886528,0,0.39192280000133906,0.525313999998616,,,51.0,69.0,98754,60.0,
152,-152,0,6,6,102,9,,,,,,,,,,,session,1752.1222788000014,126.0,2.0,72.0,0.032397797307187205,4,2.381328699993901,2.5657643000013195,0,0.7821636000007857,0.9330314000108046,6,1.8928238000080455,2.005688500008546,,,51.0,54.0,98754,60.0,
152,152,90,6,7,103,3,,,,,,,,,,,session,1762.918482299996,132.0,2.0,72.0,0.032397797307187205,5,1.4942445999913616,1.6104823999921791,6,1.143029699989711,1.258431299997028,1,1.8611995999963256,1.9779357999941567,,,72.0,66.0,98754,60.0,
-152,-152,45,6,8,104,14,,,,,,,,,,,session,1773.7717570999957,150.0,2.0,72.0,0.032397797307187205,4,0.7579716000036569,0.9077108000055887,7,0.41203000000678003,0.5953089000104228,0,0.35967200000595767,0.5097120999998879,,,60.0,60.0,98754,60.0,
152,-152,45,6,9,105,10,,,,,,,,,,,session,1781.7461863999924,156.0,2.0,72.0,0.032397797307187205,4,0.3868017999920994,0.5364526999910595,7,2.4435497999947984,2.576213899999857,1,2.699139100004686,2.8157942999969237,,,60.0,63.0,98754,60.0,
152,152,0,6,10,106,1,,,,,,,,,,,session,1794.4413589000033,162.0,2.0,72.0,0.032397797307187205,5,0.4085147000005236,0.49161530000856146,0,0.5244820000079926,0.642219200002728,6,0.528168300006655,0.6281552000000374,,,51.0,48.0,98754,60.0,
-152,152,-45,6,11,107,4,,,,,,,,,,,session,1802.0105371999962,168.0,2.0,72.0,0.032397797307187205,2,1.0053726000041934,1.0883185999991838,1,1.182179300012649,1.2989805000106571,1,0.8103283999953419,0.9421285999997053,,,72.0,63.0,98754,60.0,
152,-152,90,6,12,108,11,,,,,,,,,,,session,1812.223683899996,150.0,2.0,72.0,0.032397797307187205,4,1.0263566999929026,1.1087474999949336,7,0.4258151999965776,0.5935518999904161,0,0.5478191000001971,0.6811575000028824,,,48.0,72.0,98754,60.0,
-152,-152,90,6,13,109,15,,,,,,,,,,,session,1820.5610729999898,162.0,2.0,72.0,0.032397797307187205,3,0.677802399994107,0.8466742000018712,6,0.5263716000044951,0.648605000009411,1,0.407928799992078,0.5573081999900751,,,57.0,60.0,98754,60.0,
152,152,45,6,14,110,2,,,,,,,,,,,session,1828.7231256999949,156.0,2.0,72.0,0.032397797307187205,5,0.39707999999518506,0.5305139999982202,7,1.118451099988306,1.2852471999940462,1,0.6601261000032537,0.7768519999954151,,,54.0,60.0,98754,60.0,
152,-152,-45,6,15,111,8,,,,,,,,,,,session,1837.4056154999998,174.0,2.0,72.0,0.032397797307187205,4,0.44027929998992477,0.5902333999983966,1,4.965211500006262,5.088978200001293,1,0.4043850000016391,0.49294389999704435,,,63.0,63.0,98754,60.0,
152,152,-45,7,0,112,0,,,,,,,,,,,session,1850.0234591999906,162.0,2.0,72.0,0.032397797307187205,5,0.5803601000079652,0.7138470000063535,1,0.7381167999992613,0.872101399989333,6,0.3631330999924103,0.4783171999879414,,,51.0,54.0,98754,60.0,
152,-152,90,7,1,113,11,,,,,,,,,,,session,1858.3234178999992,144.0,2.0,72.0,0.032397797307187205,4,0.6144599999970524,0.7822440000018105,6,1.4519777999958023,1.5846660999959568,1,0.561776499991538,0.6615384999895468,,,60.0,69.0,98754,60.0,
152,-152,-45,7,2,114,8,,,,,,,,,,,session,1867.3439240000007,168.0,2.0,72.0,0.032397797307187205,4,1.2874201999948127,1.420835500000976,1,0.8239764000027208,0.9558011999906739,1,4.079012199988938,4.198262699996121,,,51.0,48.0,98754,60.0,
-152,-152,90,7,3,115,15,,,,,,,,,,,session,1880.0239780999982,174.0,2.0,72.0,0.032397797307187205,3,0.8628800000005867,0.9471736999985296,6,1.165014099999098,1.312540999992052,1,1.3111347999947611,1.445353699993575,,,69.0,57.0,98754,60.0,
-152,152,45,7,4,116,6,,,,,,,,,,,session,1890.1794041999965,126.0,2.0,72.0,0.032397797307187205,2,0.45679359999485314,0.5415516000066418,7,1.5588894999964396,1.7093966999964323,1,1.0139477000047918,1.1495487000065623,,,57.0,72.0,98754,60.0,
-152,152,90,7,5,117,7,,,,,,,,,,,session,1899.4227267999959,126.0,2.0,72.0,0.032397797307187205,4,0.6965299000003142,0.8467367999983253,1,2.375467899997602,2.5069116999948164,0,1.8952946000063093,1.9794381000101566,,,69.0,54.0,98754,60.0,
152,152,45,7,6,118,2,,,,,,,,,,,session,1910.344318000003,138.0,2.0,72.0,0.032397797307187205,5,0.6462717999966117,0.780789199998253,1,0.5383597000036389,0.6295259000035003,1,0.3251008999941405,0.42846529999224003,,,72.0,63.0,98754,60.0,
-152,-152,-45,7,7,119,12,,,,,,,,,,,session,1918.1913220999995,156.0,2.0,72.0,0.032397797307187205,3,0.462678900003084,0.6110116000054404,1,1.1070857000013348,1.2080934999976307,1,0.5601677999948151,0.6778240999992704,,,51.0,72.0,98754,60.0,
-152,-152,-45,7,7,119,12,,,materials/instructions\12_break.png,1926.8349729000038,1946.520061999996,0,19.58298599999398,19.683038799994392,0.022115600004326552,19.69091560000379,,,,,,,,,,,,,,,,,,,,98754,60.0,
-152,-152,45,7,8,120,14,,,,,,,,,,,session,1946.5364036999963,156.0,2.0,72.0,0.032397797307187205,3,0.6103757000091719,0.7780837000027532,7,1.4356365999992704,1.5865943999961019,1,0.3106155999994371,0.41070229999604635,,,51.0,60.0,98754,60.0,
-152,-152,0,7,9,121,13,,,,,,,,,,,session,1955.2128849,144.0,2.0,72.0,0.032397797307187205,3,0.3876243999984581,0.5318093999958364,0,0.9101044999988517,1.0220306999981403,1,0.31174899998586625,0.4284579999948619,,,54.0,63.0,98754,60.0,
152,-152,0,7,10,122,9,,,,,,,,,,,session,1963.025004199997,144.0,2.0,72.0,0.032397797307187205,4,2.914602900011232,3.0480154000106268,0,0.5784262999950442,0.6959902999951737,6,0.8473061000113375,0.9797073000081582,,,69.0,72.0,98754,60.0,
152,152,0,7,11,123,1,,,,,,,,,,,session,1973.958646500003,126.0,2.0,72.0,0.032397797307187205,4,0.7614896000013687,0.928253300007782,1,0.34590030000254046,0.49504480000177864,0,0.3141927999968175,0.431366100005107,,,57.0,54.0,98754,60.0,
152,-152,45,7,12,124,10,,,,,,,,,,,session,1981.2155132999906,144.0,2.0,72.0,0.032397797307187205,4,0.3729048000095645,0.4897631000058027,6,1.5816077000054065,1.7147475000092527,6,0.011060100005124696,0.012963600005605258,,,69.0,57.0,98754,60.0,
152,152,90,7,13,125,3,,,,,,,,,,,session,1989.9706943999918,156.0,2.0,72.0,0.032397797307187205,5,0.41566210000019055,0.547916499999701,6,0.5463122999935877,0.629914999997709,7,0.5467082999966806,0.6801559000014095,,,60.0,54.0,98754,60.0,
-152,152,-45,7,14,126,4,,,,,,,,,,,session,1997.777632600002,180.0,2.0,72.0,0.032397797307187205,2,1.2972432999958983,1.4140564999979688,1,1.059440299999551,1.1952178000065032,1,0.3295759000029648,0.39682510000420734,,,57.0,66.0,98754,60.0,
-152,152,0,7,15,127,5,,,,,,,,,,,session,2007.2925214999996,132.0,2.0,72.0,0.032397797307187205,2,0.36473070000647567,0.46534759999485686,0,0.6144590000039898,0.7480405999958748,1,1.628688199998578,1.7288841999979923,,,69.0,66.0,98754,60.0,
152,-152,-45,8,0,128,8,,,,,,,,,,,session,2016.140654799994,168.0,2.0,72.0,0.032397797307187205,4,3.0514374999911524,3.184228500002064,1,0.8097694000025513,0.911633299998357,6,6.5568075999908615,6.675171199996839,,,54.0,60.0,98754,60.0,
-152,-152,45,8,1,129,14,,,,,,,,,,,session,2033.076335699996,174.0,2.0,72.0,0.032397797307187205,3,0.9437782000022708,1.1105855000059819,7,1.2177972000063164,1.3505123000068124,1,0.3616677999962121,0.46143429999938235,,,54.0,48.0,98754,60.0,
152,152,-45,8,2,130,0,,,,,,,,,,,session,2042.0636674999987,168.0,2.0,72.0,0.032397797307187205,5,1.2279889000055846,1.3447013000113657,1,0.6693257999868365,0.783764699997846,1,1.7763589000096545,1.8792514000087976,,,51.0,63.0,98754,60.0,
152,152,45,8,3,131,2,,,,,,,,,,,session,2052.258270899998,162.0,2.0,72.0,0.032397797307187205,5,0.4078704999992624,0.5076434000075096,7,1.512205199993332,1.6267439999937778,1,0.6805796999979066,0.7483216999971773,,,54.0,57.0,98754,60.0,
-152,-152,90,8,4,132,15,,,,,,,,,,,session,2061.158670299992,132.0,2.0,72.0,0.032397797307187205,3,0.43251149999559857,0.5998728999984451,6,1.0271788999962155,1.145982299989555,1,0.8814277000055881,0.9648610000003828,,,54.0,69.0,98754,60.0,
-152,152,45,8,5,133,6,,,,,,,,,,,session,2069.5825083999953,132.0,2.0,72.0,0.032397797307187205,2,0.5239409999921918,0.6405106000020169,7,1.4642735999950673,1.6143931999977212,6,0.31071499999961816,0.4442684000096051,,,48.0,60.0,98754,60.0,
-152,152,-45,8,6,134,4,,,,,,,,,,,session,2078.408450499992,162.0,2.0,72.0,0.032397797307187205,2,0.3930871000047773,0.493227900005877,1,0.7343362000101479,0.8324438000126975,1,0.29991339999833144,0.4000858000072185,,,63.0,57.0,98754,60.0,
-152,152,0,8,7,135,5,,,,,,,,,,,session,2086.278418499991,144.0,2.0,72.0,0.032397797307187205,2,0.7318510999903083,0.8486431999917841,0,0.5861264000122901,0.6751732000120683,1,0.4273124000028474,0.5609136999992188,,,60.0,66.0,98754,60.0,
152,-152,90,8,8,136,11,,,,,,,,,,,session,2094.304802300001,168.0,2.0,72.0,0.032397797307187205,4,0.4486878999887267,0.5992968999926234,1,1.8708725000033155,1.954266100001405,1,0.49745769999572076,0.5975043999933405,,,48.0,48.0,98754,60.0,
152,152,0,8,9,137,1,,,,,,,,,,,session,2103.342072200001,138.0,2.0,72.0,0.032397797307187205,5,0.7184886000031838,0.8338700000022072,0,0.647082000010414,0.7637770000001183,1,0.250422900004196,0.3838982000015676,,,54.0,66.0,98754,60.0,
-152,-152,0,8,10,138,13,,,,,,,,,,,session,2111.0650251999905,144.0,2.0,72.0,0.032397797307187205,3,0.8249521999969147,0.9579365999961738,0,0.6047244999936083,0.7374280999938492,6,0.5425911999918753,0.6759455999999773,,,48.0,63.0,98754,60.0,
-152,-152,-45,8,11,139,12,,,,,,,,,,,session,2119.473017700002,138.0,2.0,72.0,0.032397797307187205,3,1.0800325000018347,1.213467599998694,1,2.0287012999906437,2.11374679999426,1,0.6789470999938203,0.7812956999987364,,,60.0,60.0,98754,60.0,
-152,-152,-45,8,11,139,12,,,materials/instructions\12_break.png,2129.359848799999,2150.707692600001,0,21.229109599997173,21.345780400006333,0.018404599992209114,21.353871100000106,,,,,,,,,,,,,,,,,,,,98754,60.0,
152,-152,0,8,12,140,9,,,,,,,,,,,session,2150.723687199992,174.0,2.0,72.0,0.032397797307187205,4,0.37481360000674613,0.5239238000067417,0,0.8317870000028051,0.8983389000059105,6,1.8890902000130154,2.022918100003153,,,57.0,63.0,98754,60.0,
-152,152,90,8,13,141,7,,,,,,,,,,,session,2160.509487999996,138.0,2.0,72.0,0.032397797307187205,2,0.9090174000011757,0.9921354999969481,6,1.0708461000031093,1.187647200000356,6,0.32598829999915324,0.42809879999549594,,,54.0,51.0,98754,60.0,
152,152,90,8,14,142,3,,,,,,,,,,,session,2168.7102422000025,126.0,2.0,72.0,0.032397797307187205,5,1.0986046000034548,1.1987754000001587,1,0.3043984999967506,0.4377200000017183,0,0.476432700001169,0.5598895000002813,,,72.0,72.0,98754,60.0,
152,-152,45,8,15,143,10,,,,,,,,,,,session,2176.8456925999926,126.0,2.0,72.0,0.032397797307187205,4,1.002157900002203,1.1521532000042498,7,1.242756300009205,1.3910475000011502,1,0.3158352000027662,0.4159319000027608,,,54.0,63.0,98754,60.0,
-152,-152,-45,9,0,144,12,,,,,,,,,,,session,2185.3081447000004,126.0,2.0,72.0,0.032397797307187205,3,0.6096758999919984,0.7591580000007525,1,0.8287610999977915,0.9284476999891922,1,0.32832409998809453,0.4139588999969419,,,60.0,69.0,98754,60.0,
152,152,45,9,1,145,2,,,,,,,,,,,session,2193.111007600004,144.0,2.0,72.0,0.032397797307187205,5,0.5472234999906505,0.6973457999993116,7,1.5507727999938652,1.7175754999916535,1,2.085239799998817,2.106937000004109,,,66.0,69.0,98754,60.0,
152,-152,90,9,2,146,11,,,,,,,,,,,session,2203.7762833000015,150.0,2.0,72.0,0.032397797307187205,4,0.3899999999994179,0.5400258000008762,6,1.3670618000032846,1.4659791000012774,1,0.24685860000317916,0.32940380000218283,,,48.0,72.0,98754,60.0,
-152,-152,0,9,3,147,13,,,,,,,,,,,session,2212.324404999992,144.0,2.0,72.0,0.032397797307187205,3,0.1829503999906592,0.38370239999494515,0,0.5460209000011673,0.6126686000061454,6,0.28054429999610875,0.3806173999910243,,,48.0,69.0,98754,60.0,
-152,152,-45,9,4,148,4,,,,,,,,,,,session,2219.4967920999916,138.0,2.0,72.0,0.032397797307187205,2,1.0847790999978315,1.2119163000024855,1,1.0044475000031525,1.1166229999944335,1,1.0885857999965083,1.1718803999974625,,,54.0,72.0,98754,60.0,
152,152,90,9,5,149,3,,,,,,,,,,,session,2228.8897809999908,126.0,2.0,72.0,0.032397797307187205,5,0.49229470000136644,0.6433229999965988,6,1.3450182000087807,1.4450911000021733,1,1.077225000000908,1.127252899997984,,,69.0,57.0,98754,60.0,
-152,152,45,9,6,150,6,,,,,,,,,,,session,2237.759746099997,162.0,2.0,72.0,0.032397797307187205,2,0.8288947999972152,0.8789181000029203,7,1.1952739999978803,1.3476239000010537,1,0.4976247000013245,0.6376783000014257,,,57.0,51.0,98754,60.0,
152,152,0,9,7,151,1,,,,,,,,,,,session,2246.5762932999933,144.0,2.0,72.0,0.032397797307187205,5,0.4063270999904489,0.5230121999920812,0,0.5439489999989746,0.6611435000086203,6,0.2877089999965392,0.40551130000676494,,,66.0,60.0,98754,60.0,
152,-152,-45,9,8,152,8,,,,,,,,,,,session,2254.695712899993,168.0,2.0,72.0,0.032397797307187205,4,1.047547599999234,1.2290983999992022,7,4.150168899999699,4.267127600003732,1,0.29546470000059344,0.3621473999955924,,,72.0,72.0,98754,60.0,
-152,-152,90,9,9,153,15,,,,,,,,,,,session,2267.215530100002,138.0,2.0,72.0,0.032397797307187205,3,0.33396620000712574,0.4718892000091728,6,3.0149677000008523,3.1314949999941746,1,0.47979540000960696,0.6467604000063147,,,66.0,57.0,98754,60.0,
-152,152,90,9,10,154,7,,,,,,,,,,,session,2277.8769789999933,156.0,2.0,72.0,0.032397797307187205,4,0.9479179999907501,1.047961199990823,1,1.0930833000020357,1.1764211999980034,0,0.8450822000013432,0.9779768000007607,,,60.0,57.0,98754,60.0,
-152,-152,45,9,11,155,14,,,,,,,,,,,session,2287.081933499998,144.0,2.0,72.0,0.032397797307187205,3,0.010945700007141568,0.10950089999823831,1,3.59113499999512,3.7053010999952676,1,0.44331099999544676,0.5246967999992194,,,54.0,57.0,98754,60.0,
152,152,-45,9,12,156,0,,,,,,,,,,,session,2297.1570603,180.0,2.0,72.0,0.032397797307187205,5,0.4623314000054961,0.5937795000063488,1,1.1038894999946933,1.1712919999990845,6,1.1801875999954063,1.297206899995217,,,63.0,60.0,98754,60.0,
152,-152,45,9,13,157,10,,,,,,,,,,,session,2306.713414999991,156.0,2.0,72.0,0.032397797307187205,4,1.945764499992947,2.1321717999962857,7,1.1720591000048444,1.32664320000913,6,0.8304000999924028,0.9136303999985103,,,48.0,72.0,98754,60.0,
-152,152,0,9,14,158,5,,,,,,,,,,,session,2317.1438962999964,126.0,2.0,72.0,0.032397797307187205,2,1.912226999993436,1.994771600002423,7,1.0637291000020923,1.2639061999943806,0,0.36758520000148565,0.5169483000063337,,,66.0,72.0,98754,60.0,
152,-152,0,9,15,159,9,,,,,,,,,,,session,2326.7609041999967,180.0,2.0,72.0,0.032397797307187205,4,1.0631589999975404,1.212221199995838,0,1.5960727000056067,1.6960618000011891,6,0.8713133999990532,0.9761653000023216,,,51.0,66.0,98754,60.0,
152,-152,0,9,15,159,9,,,materials/instructions\12_break.png,2337.091728799991,2378.214582300003,0,40.95511049999914,41.120838399991044,0.017977499999688007,41.128695899999,,,,,,,,,,,,,,,,,,,,98754,60.0,
152,152,90,10,0,160,3,,,,,,,,,,,session,2378.230273399997,138.0,2.0,72.0,0.032397797307187205,5,0.7659115999995265,0.9634642000019085,6,1.7578410999994958,1.907149999999092,1,0.44445910000649747,0.577927100006491,,,51.0,69.0,98754,60.0,
152,152,-45,10,1,161,0,,,,,,,,,,,session,2388.1109803,168.0,2.0,72.0,0.032397797307187205,5,0.24292640000930987,0.4096598000032827,1,0.6741291000071215,0.8251748000038788,6,0.532304699998349,0.6657578000013018,,,51.0,57.0,98754,60.0,
-152,152,-45,10,2,162,4,,,,,,,,,,,session,2396.066992399996,180.0,2.0,72.0,0.032397797307187205,2,0.8136278000019956,0.9376516000047559,1,2.0137154999974882,2.096756599989021,6,0.29154859999835026,0.36107270000502467,,,66.0,48.0,98754,60.0,
-152,-152,0,10,3,163,13,,,,,,,,,,,session,2405.8125838999986,150.0,2.0,72.0,0.032397797307187205,3,0.4415251000027638,0.6435491000011098,0,1.7786325000051875,1.8953907000104664,1,0.3626064999989467,0.4793519000086235,,,72.0,66.0,98754,60.0,
-152,152,0,10,4,164,5,,,,,,,,,,,session,2415.0951225000026,150.0,2.0,72.0,0.032397797307187205,2,0.34194729999580886,0.45963520000805147,0,0.7306622000032803,0.8666856000054395,1,0.37833320000208914,0.5120115000026999,,,51.0,72.0,98754,60.0,
-152,-152,-45,10,5,165,12,,,,,,,,,,,session,2422.8985469000036,132.0,2.0,72.0,0.032397797307187205,3,0.6215139999985695,0.8269641999941086,6,1.2440090000018245,1.360701900004642,1,0.38008599999011494,0.49891070000012405,,,60.0,69.0,98754,60.0,
152,-152,-45,10,6,166,8,,,,,,,,,,,session,2431.3601120999956,150.0,2.0,72.0,0.032397797307187205,4,0.4434776999987662,0.5934521000017412,1,0.7602059999917401,0.9131252999941353,1,2.7317425000073854,2.7820496000058483,,,54.0,63.0,98754,60.0,
-152,152,90,10,7,167,7,,,,,,,,,,,session,2441.497622099996,156.0,2.0,72.0,0.032397797307187205,4,0.7017973000038182,0.9021964999992633,6,0.4249588999955449,0.558160599990515,0,0.4633774999965681,0.5630016999930376,,,69.0,72.0,98754,60.0,
-152,-152,90,10,8,168,15,,,,,,,,,,,session,2450.0781251000008,132.0,2.0,72.0,0.032397797307187205,3,0.342671699996572,0.5240065999969374,6,1.163213599997107,1.2945295999961672,1,0.4985902000044007,0.614489900006447,,,63.0,69.0,98754,60.0,
152,-152,45,10,9,169,10,,,,,,,,,,,session,2458.3614151999936,156.0,2.0,72.0,0.032397797307187205,4,1.9974666999914916,2.2143798999895807,7,1.380229899994447,1.580309999990277,6,0.4764957000006689,0.5879711000015959,,,63.0,54.0,98754,60.0,
152,152,0,10,10,170,1,,,,,,,,,,,session,2468.7570882,168.0,2.0,72.0,0.032397797307187205,5,0.32878189999610186,0.4612914000026649,0,1.6558374999876833,1.7567655999882845,1,1.1620806999999331,1.2601262999960454,,,66.0,60.0,98754,60.0,
-152,152,45,10,11,171,6,,,,,,,,,,,session,2478.9417329999997,180.0,2.0,72.0,0.032397797307187205,5,0.6476271999999881,0.7809567999938736,6,0.34569509999710135,0.4789992000005441,0,0.6129134000075283,0.7296706000051927,,,48.0,60.0,98754,60.0,
152,-152,0,10,12,172,9,,,,,,,,,,,session,2487.1832511999964,162.0,2.0,72.0,0.032397797307187205,4,0.41357720000087284,0.6246659000025829,0,0.926106000013533,1.0785581000091042,1,2.0281217000010656,2.1282539000094403,,,57.0,48.0,98754,60.0,
152,152,45,10,13,173,2,,,,,,,,,,,session,2497.4593105999957,144.0,2.0,72.0,0.032397797307187205,5,0.35844559999532066,0.47629269999742974,7,1.2117567999957828,1.3620245999918552,1,0.8467227999935858,0.9473288000008324,,,57.0,69.0,98754,60.0,
-152,-152,45,10,14,174,14,,,,,,,,,,,session,2506.2022572999995,132.0,2.0,72.0,0.032397797307187205,5,0.6301180000009481,0.7645068999991054,1,0.8063806999998633,0.8896220000024186,0,0.33070420000876766,0.4807262000103947,,,69.0,57.0,98754,60.0,
152,-152,90,10,15,175,11,,,,,,,,,,,session,2514.0792150999914,144.0,2.0,72.0,0.032397797307187205,4,0.32926210000005085,0.5125916999968467,6,0.7489968000008957,0.8638788999960525,6,0.29542700000456534,0.3784245999995619,,,60.0,66.0,98754,60.0,
-152,-152,90,11,0,176,15,,,,,,,,,,,session,2521.8472578999936,174.0,2.0,72.0,0.032397797307187205,3,0.5629514999891398,0.7623958999902243,6,5.485739999989164,5.618965299989213,1,0.3147977000044193,0.4340329999977257,,,54.0,72.0,98754,60.0,
152,152,0,11,1,177,1,,,,,,,,,,,session,2535.123615999997,156.0,2.0,72.0,0.032397797307187205,5,0.481374599999981,0.5837492999999085,0,1.7044763000012608,1.821995699996478,1,5.879628599999705,5.977683700009948,,,72.0,60.0,98754,60.0,
152,-152,90,11,2,178,11,,,,,,,,,,,session,2550.0322786000033,126.0,2.0,72.0,0.032397797307187205,5,0.7205583000031766,0.8392648000008194,1,0.3408225000021048,0.44092649999947753,0,0.3409838999941712,0.5189390999876196,,,60.0,63.0,98754,60.0,
-152,152,90,11,3,179,7,,,,,,,,,,,session,2557.5411464999925,144.0,2.0,72.0,0.032397797307187205,2,0.26032990000385325,0.3439129000034882,6,0.4685038000025088,0.5685092000057921,6,0.01202309998916462,0.1308454999962123,,,63.0,72.0,98754,60.0,
-152,152,90,11,3,179,7,,,materials/instructions\12_break.png,2564.9840697000036,2613.431862600002,0,48.326016599996365,48.44557569999597,0.010736200012615882,48.450400600006105,,,,,,,,,,,,,,,,,,,,98754,60.0,
152,152,-45,11,4,180,0,,,,,,,,,,,session,2613.4449921999912,162.0,2.0,72.0,0.032397797307187205,5,0.48850819999643136,0.6045903999911388,1,0.6243699000042398,0.7410677000007126,6,0.5114372000098228,0.6290326000016648,,,72.0,57.0,98754,60.0,
-152,-152,-45,11,5,181,12,,,,,,,,,,,session,2621.7202415999927,132.0,2.0,72.0,0.032397797307187205,3,0.9724279000074603,1.1585059000062756,1,2.0174938999989536,2.15071529999841,1,0.5322161000076449,0.616519100003643,,,66.0,54.0,98754,60.0,
152,152,90,11,6,182,3,,,,,,,,,,,session,2632.014527399995,126.0,2.0,72.0,0.032397797307187205,4,0.7136515000020154,0.8629328999959398,7,0.3481216000072891,0.463489000001573,0,0.2973448999982793,0.41386729999794625,,,54.0,72.0,98754,60.0,
-152,152,0,11,7,183,5,,,,,,,,,,,session,2639.4159027999995,168.0,2.0,72.0,0.032397797307187205,2,0.379982900005416,0.4975740000081714,0,1.4595883000001777,1.5717652999883285,6,0.3657106000027852,0.4778684000048088,,,57.0,51.0,98754,60.0,
152,-152,0,11,8,184,9,,,,,,,,,,,session,2648.0438398999977,144.0,2.0,72.0,0.032397797307187205,4,0.46304099999542814,0.6146265999996103,0,0.9125121999968542,1.0292388999951072,6,0.2980185999913374,0.398055799989379,,,63.0,48.0,98754,60.0,
-152,152,-45,11,9,185,4,,,,,,,,,,,session,2655.7963254999922,174.0,2.0,72.0,0.032397797307187205,2,1.4553735999943456,1.554461399995489,1,0.9183729999931529,1.068053199996939,0,1.5133338000014191,1.6463645000039833,,,54.0,57.0,98754,60.0,
152,152,45,11,10,186,2,,,,,,,,,,,session,2666.2710993999935,168.0,2.0,72.0,0.032397797307187205,5,0.49979859999439213,0.5831323999882443,7,1.4193100999982562,1.4224515999958385,1,0.47854119999101385,0.5439430999977048,,,57.0,66.0,98754,60.0,
152,-152,-45,11,11,187,8,,,,,,,,,,,session,2675.7792874000006,162.0,2.0,72.0,0.032397797307187205,4,0.36419029999524355,0.5319158999918727,1,1.3808778000093298,1.497846300000674,6,0.4517909999995027,0.567044800001895,,,57.0,72.0,98754,60.0,
-152,-152,0,11,12,188,13,,,,,,,,,,,session,2684.6692765999906,162.0,2.0,72.0,0.032397797307187205,3,0.2868834999972023,0.46959659999993164,0,0.4666620999923907,0.5481117999879643,6,0.1958742999995593,0.3084536000096705,,,60.0,72.0,98754,60.0,
-152,-152,45,11,13,189,14,,,,,,,,,,,session,2692.3937638999923,180.0,2.0,72.0,0.032397797307187205,3,0.45199989998945966,0.6021232999919448,7,1.1143656999920495,1.263334399991436,1,2.114156499999808,2.1811476000002585,,,51.0,72.0,98754,60.0,
-152,152,45,11,14,190,6,,,,,,,,,,,session,2702.947980900004,180.0,2.0,72.0,0.032397797307187205,2,1.6153951000014786,1.698155999998562,7,0.716449300001841,0.8612882000015816,6,0.19079899998905603,0.34229479999339674,,,51.0,48.0,98754,60.0,
152,-152,45,11,15,191,10,,,,,,,,,,,session,2711.9811819000024,174.0,2.0,72.0,0.032397797307187205,4,0.19797759999346454,0.3804482999985339,7,1.2788604999950621,1.4274831999937305,0,4.248113199995714,4.381541099995957,,,60.0,69.0,98754,60.0,
-152,152,45,12,0,192,6,,,,,,,,,,,session,2724.9147043999983,174.0,2.0,72.0,0.032397797307187205,2,0.4483429999963846,0.5310258999961661,7,0.7803416000097059,0.9483418000017991,1,0.30444000000716187,0.38969760001054965,,,69.0,69.0,98754,60.0,
152,-152,45,12,1,193,10,,,,,,,,,,,session,2733.4165009999997,132.0,2.0,72.0,0.032397797307187205,4,0.34210010000970215,0.4922316000011051,7,0.9342858000018168,1.050814399990486,6,0.39120999998704065,0.5424189999903319,,,54.0,69.0,98754,60.0,
152,152,-45,12,2,194,0,,,,,,,,,,,session,2741.678488999998,132.0,2.0,72.0,0.032397797307187205,5,0.5469768000039039,0.6793895000009798,1,0.7135677000042051,0.8147439000022132,1,1.6298416999925394,1.698296799993841,,,63.0,60.0,98754,60.0,
-152,-152,90,12,3,195,15,,,,,,,,,,,session,2750.5514753000025,168.0,2.0,72.0,0.032397797307187205,3,0.7028589000110514,0.8360842000111006,6,0.5361197000020184,0.6862648999958765,1,0.2459647999930894,0.32752189999155235,,,48.0,57.0,98754,60.0,
-152,-152,-45,12,4,196,12,,,,,,,,,,,session,2758.4109624999983,150.0,2.0,72.0,0.032397797307187205,3,1.0424612999922829,1.2104954999958863,1,1.6123862999957055,1.6957832999905804,1,0.4963209999987157,0.5631303999980446,,,54.0,57.0,98754,60.0,
-152,152,0,12,5,197,5,,,,,,,,,,,session,2767.68105259999,162.0,2.0,72.0,0.032397797307187205,2,0.37691649999760557,0.4939635999908205,0,0.47310859999561217,0.5733092000009492,6,0.24567569998907857,0.39483689999906346,,,60.0,66.0,98754,60.0,
152,152,0,12,6,198,1,,,,,,,,,,,session,2775.387705699992,126.0,2.0,72.0,0.032397797307187205,5,0.5257765999995172,0.6298129999922821,0,0.4947207000077469,0.6275575000036042,1,0.011138000001665205,0.0464776000007987,,,48.0,72.0,98754,60.0,
152,152,90,12,7,199,3,,,,,,,,,,,session,2782.842714600003,138.0,2.0,72.0,0.032397797307187205,5,0.8962618000077782,1.012874699998065,1,0.2815665999951307,0.3985642000043299,0,0.6296594000014011,0.7464580000087153,,,69.0,51.0,98754,60.0,
152,152,90,12,7,199,3,,,materials/instructions\12_break.png,2790.7760411999916,2815.2814320000034,0,24.40347920000204,24.50353410000389,0.02360939999925904,24.511344600003213,,,,,,,,,,,,,,,,,,,,98754,60.0,
-152,-152,45,12,8,200,14,,,,,,,,,,,session,2815.297270700001,132.0,2.0,72.0,0.032397797307187205,5,1.8395755999954417,2.007265099993674,1,0.3256742000085069,0.4371296000026632,0,0.42307119999895804,0.5422053000074811,,,51.0,57.0,98754,60.0,
152,-152,90,12,9,201,11,,,,,,,,,,,session,2823.7786086999986,180.0,2.0,72.0,0.032397797307187205,4,0.37941689998842776,0.5131067999900552,6,0.8498152000101982,0.9331753000005847,1,0.6128850000095554,0.7128531000053044,,,66.0,63.0,98754,60.0,
152,152,45,12,10,202,2,,,,,,,,,,,session,2832.5464603,156.0,2.0,72.0,0.032397797307187205,5,0.5854345000116155,0.735440300006303,7,1.1819408000010299,1.3653942000091774,1,3.7236324999976205,3.8339995999995153,,,48.0,54.0,98754,60.0,
-152,-152,0,12,11,203,13,,,,,,,,,,,session,2844.226016799992,156.0,2.0,72.0,0.032397797307187205,3,0.32828829999198206,0.4783047999953851,0,1.1319963999994798,1.2498583999986295,1,1.3284405000013066,1.4283510999957798,,,60.0,69.0,98754,60.0,
-152,152,90,12,12,204,7,,,,,,,,,,,session,2853.9663071999967,132.0,2.0,72.0,0.032397797307187205,5,1.4617509999952745,1.6122764000028837,6,0.6806944999989355,0.7971350000007078,0,1.2265891999995802,1.3601660999993328,,,66.0,48.0,98754,60.0,
152,-152,0,12,13,205,9,,,,,,,,,,,session,2863.2880287000007,126.0,2.0,72.0,0.032397797307187205,4,0.012081399996532127,0.1561634999961825,0,0.7404680999898119,0.9221373000036692,1,2.0276779999985592,2.1415534999978263,,,57.0,66.0,98754,60.0,
152,-152,-45,12,14,206,8,,,,,,,,,,,session,2872.545930799999,174.0,2.0,72.0,0.032397797307187205,4,1.3740366999991238,1.5416388000012375,1,0.7495345999923302,0.8326842999958899,1,0.29608050000388175,0.39606719999574125,,,57.0,57.0,98754,60.0,
-152,152,-45,12,15,207,4,,,,,,,,,,,session,2881.5684739999997,156.0,2.0,72.0,0.032397797307187205,2,0.4138780999928713,0.5136598999961279,1,0.6696559999982128,0.753279399999883,1,0.8990275999967707,1.013906499996665,,,72.0,54.0,98754,60.0,
-152,152,-45,13,0,208,4,,,,,,,,,,,session,2890.0118285999924,150.0,2.0,72.0,0.032397797307187205,2,0.3799415000103181,0.44729219999862835,7,1.3591253999911714,1.5093188999890117,1,0.46983249999175314,0.5663304000045173,,,51.0,51.0,98754,60.0,
-152,152,45,13,1,209,6,,,,,,,,,,,session,2898.194884700002,156.0,2.0,72.0,0.032397797307187205,2,0.4935983000032138,0.6094284999999218,7,1.051982200006023,1.2169747000007192,1,0.7785413999954471,0.8786339999933261,,,72.0,48.0,98754,60.0,
-152,-152,45,13,2,210,14,,,,,,,,,,,session,2906.953651699994,162.0,2.0,72.0,0.032397797307187205,3,0.011037299991585314,0.13647909999417607,1,1.4927679000102216,1.6094340000126977,1,2.6660693000012543,2.7980255000002217,,,72.0,66.0,98754,60.0,
152,-152,-45,13,3,211,8,,,,,,,,,,,session,2918.5335789999954,150.0,2.0,72.0,0.032397797307187205,4,0.7706327999912901,0.9368495999951847,1,0.3652165999956196,0.48109889999614097,0,0.29657930000394117,0.39630260001285933,,,48.0,54.0,98754,60.0,
-152,-152,0,13,4,212,13,,,,,,,,,,,session,2926.018530000001,150.0,2.0,72.0,0.032397797307187205,3,0.011967600003117695,0.16173600000911392,0,0.4429256000003079,0.6092892000015127,1,0.6736537999968277,0.7733924999920418,,,69.0,66.0,98754,60.0,
-152,-152,90,13,5,213,15,,,,,,,,,,,session,2933.798506799998,132.0,2.0,72.0,0.032397797307187205,3,0.3646580999920843,0.49795229999290314,6,0.5691146999888588,0.7188128999987384,1,0.8814808000024641,0.9979972000000998,,,51.0,48.0,98754,60.0,
152,-152,45,13,6,214,10,,,,,,,,,,,session,2941.4173725,174.0,2.0,72.0,0.032397797307187205,5,1.213839200005168,1.3965551000001142,1,0.29439609999826644,0.3776700000016717,0,0.49872630000754725,0.6314944000041578,,,51.0,69.0,98754,60.0,
-152,152,0,13,7,215,5,,,,,,,,,,,session,2950.1710816999985,162.0,2.0,72.0,0.032397797307187205,2,1.4695340000034776,1.619403599994257,1,1.4290815999993356,1.5427802999911364,0,0.6634850999980699,0.8448026999976719,,,57.0,60.0,98754,60.0,
152,-152,90,13,8,216,11,,,,,,,,,,,session,2960.3130898999952,168.0,2.0,72.0,0.032397797307187205,4,0.3928796000109287,0.5429441000014776,1,0.9269472999876598,1.061907199997222,0,0.9826647999871057,1.0826751999993576,,,63.0,48.0,98754,60.0,
152,152,-45,13,9,217,0,,,,,,,,,,,session,2969.1015864999936,180.0,2.0,72.0,0.032397797307187205,5,0.37358500000846107,0.5219355000008363,1,0.5601163999963319,0.6851538000046276,0,0.6539684000017587,0.8080105999979423,,,72.0,51.0,98754,60.0,
152,152,90,13,10,218,3,,,,,,,,,,,session,2977.6325691999955,150.0,2.0,72.0,0.032397797307187205,5,0.43066079998970963,0.6159363999904599,6,0.7123762000119314,0.8293746000126703,0,0.7437967000005301,0.8438702999992529,,,57.0,63.0,98754,60.0,
-152,152,90,13,11,219,7,,,,,,,,,,,session,2986.0339447000006,162.0,2.0,72.0,0.032397797307187205,2,0.8106040999991819,0.9272898999915924,6,0.7792273000086425,0.912904199998593,0,0.7137082999979611,0.864154700000654,,,69.0,54.0,98754,60.0,
-152,152,90,13,11,219,7,,,materials/instructions\12_break.png,2994.9705265999946,3004.39379609999,0,9.287785100008477,9.421085200010566,0.018260500000906177,9.428901399995084,,,,,,,,,,,,,,,,,,,,98754,60.0,
152,152,45,13,12,220,2,,,,,,,,,,,session,3004.4091255999956,132.0,2.0,72.0,0.032397797307187205,5,1.123341900005471,1.1902469000051497,1,0.36286619999737013,0.4796472000016365,0,0.48979180000605993,0.6584610999998404,,,69.0,48.0,98754,60.0,
152,152,0,13,13,221,1,,,,,,,,,,,session,3012.3536050999974,162.0,2.0,72.0,0.032397797307187205,5,0.5640177000022959,0.7308504999964498,0,0.8798528000043007,1.0115196999977343,1,0.2915861999936169,0.4435949999897275,,,48.0,57.0,98754,60.0,
-152,-152,-45,13,14,222,12,,,,,,,,,,,session,3020.4524130999926,156.0,2.0,72.0,0.032397797307187205,3,0.321435299993027,0.42056839998986106,1,0.7765669000073103,0.9102074999973411,1,0.49305269999604207,0.6099091999931261,,,51.0,66.0,98754,60.0,
152,-152,0,13,15,223,9,,,,,,,,,,,session,3028.9301331000024,168.0,2.0,72.0,0.032397797307187205,4,0.360445800004527,0.542959600003087,0,0.8289370999991661,0.9795214000041597,1,0.8672988999896916,1.0030778999935137,,,63.0,69.0,98754,60.0,
152,-152,90,14,0,224,11,,,,,,,,,,,session,3037.925943399998,138.0,2.0,72.0,0.032397797307187205,4,0.7793056000082288,0.9118879000016022,0,0.7801126999984263,0.8848165999952471,1,2.8288590000011027,2.9278539000079036,,,60.0,63.0,98754,60.0,
-152,152,45,14,1,225,6,,,,,,,,,,,session,3048.467354399996,138.0,2.0,72.0,0.032397797307187205,4,0.7775546000048053,0.9444083999987924,1,0.630552999995416,0.7148236999928486,0,1.6834890000027372,1.7501631999912206,,,57.0,54.0,98754,60.0,
-152,-152,45,14,2,226,14,,,,,,,,,,,session,3057.4868997000012,168.0,2.0,72.0,0.032397797307187205,3,1.3528005999978632,1.4704096000059508,7,3.4075862000026973,3.571408400006476,1,0.296681300009368,0.4133256000059191,,,60.0,60.0,98754,60.0,
-152,152,90,14,3,227,7,,,,,,,,,,,session,3069.2472168999957,180.0,2.0,72.0,0.032397797307187205,4,0.9754058999969857,1.1588048999983585,1,0.3496278000093298,0.5000866000045789,0,0.6227349999971921,0.7560984000010649,,,48.0,54.0,98754,60.0,
152,-152,0,14,4,228,9,,,,,,,,,,,session,3077.8036139000033,126.0,2.0,72.0,0.032397797307187205,4,0.3972664999892004,0.53067039999587,0,0.6680334999982733,0.7669037000014214,6,0.729458000001614,0.8472373999975389,,,48.0,69.0,98754,60.0,
152,152,-45,14,5,229,0,,,,,,,,,,,session,3085.440726899993,132.0,2.0,72.0,0.032397797307187205,5,0.6567413000011584,0.7781686999951489,1,0.9640139999974053,1.0972609000018565,6,4.042450599998119,4.192463300001691,,,69.0,57.0,98754,60.0,
152,152,45,14,6,230,2,,,,,,,,,,,session,3097.8525066,174.0,2.0,72.0,0.032397797307187205,5,2.0284679000033066,2.146259800007101,1,0.36223749999771826,0.4956263000058243,0,0.7176548999996157,0.8852900000056252,,,60.0,48.0,98754,60.0,
152,152,0,14,7,231,1,,,,,,,,,,,session,3107.5242693000037,144.0,2.0,72.0,0.032397797307187205,5,0.5392935999989277,0.7193747999990592,0,0.5955987000052119,0.7616491999942809,1,1.2262168000015663,1.409464399999706,,,54.0,60.0,98754,60.0,
-152,152,0,14,8,232,5,,,,,,,,,,,session,3116.884920800003,180.0,2.0,72.0,0.032397797307187205,2,1.8287636000022758,1.9276662000047509,0,0.6956463999958942,0.8113789999915753,1,1.6846942999982275,1.8015402000019094,,,54.0,69.0,98754,60.0,
-152,152,-45,14,9,233,4,,,,,,,,,,,session,3127.9421936,126.0,2.0,72.0,0.032397797307187205,2,0.3365942999953404,0.4916293999995105,7,1.1587644000101136,1.3087655999988783,1,0.315360700013116,0.44864240000606515,,,69.0,48.0,98754,60.0,
-152,-152,0,14,10,234,13,,,,,,,,,,,session,3135.950815999997,132.0,2.0,72.0,0.032397797307187205,3,0.07599559999653138,0.22677229999681003,0,0.44301260000793263,0.558864699996775,1,2.5620051000005333,2.6956806000089273,,,51.0,57.0,98754,60.0,
152,-152,45,14,11,235,10,,,,,,,,,,,session,3144.902920399996,180.0,2.0,72.0,0.032397797307187205,4,0.49026139998750295,0.672652699999162,7,0.7135765999992145,0.8797210000047926,6,0.5218228000012459,0.6552233999973396,,,63.0,63.0,98754,60.0,
152,-152,-45,14,12,236,8,,,,,,,,,,,session,3153.662949199992,144.0,2.0,72.0,0.032397797307187205,4,0.4907812000019476,0.69084440000006,1,0.5156459999998333,0.6155650000000605,6,0.2979923999955645,0.4148053999961121,,,72.0,63.0,98754,60.0,
-152,-152,90,14,13,237,15,,,,,,,,,,,session,3161.8185508000024,144.0,2.0,72.0,0.032397797307187205,4,0.662223699997412,0.8452715000021271,1,0.09762129999580793,0.2820168000034755,0,1.0607033999986015,1.1943600000086008,,,63.0,60.0,98754,60.0,
-152,-152,-45,14,14,238,12,,,,,,,,,,,session,3170.0396425999934,144.0,2.0,72.0,0.032397797307187205,4,0.6621962000062922,0.8463953000027686,7,1.2847660000115866,1.3893576000118628,0,0.4120063000009395,0.5243964000110282,,,63.0,60.0,98754,60.0,
152,152,90,14,15,239,3,,,,,,,,,,,session,3178.715375300002,150.0,2.0,72.0,0.032397797307187205,5,1.862982099992223,2.0467530000023544,7,3.6635355000034906,3.846936200003256,1,0.2646924000000581,0.41473709999991115,,,48.0,51.0,98754,60.0,
152,152,90,14,15,239,3,,,materials/instructions\12_break.png,3190.660021399992,3238.0540531000006,0,47.276935799993225,47.392078999997466,0.011511899996548891,47.40002210000239,,,,,,,,,,,,,,,,,,,,98754,60.0,
152,152,0,15,0,240,1,,,,,,,,,,,session,3238.0698697999906,144.0,2.0,72.0,0.032397797307187205,5,1.7283769999921788,1.8327214999881107,0,1.4789474999997765,1.5959273999906145,1,0.44573120000131894,0.5616413999960059,,,48.0,48.0,98754,60.0,
152,152,-45,15,1,241,0,,,,,,,,,,,session,3247.781952599995,162.0,2.0,72.0,0.032397797307187205,5,0.6071851000015158,0.7395874000067124,1,0.3784315999946557,0.49456399999326095,0,0.5472830000071554,0.6472807999962242,,,54.0,72.0,98754,60.0,
-152,152,45,15,2,242,6,,,,,,,,,,,session,3255.9371616999997,138.0,2.0,72.0,0.032397797307187205,2,1.4981106000050204,1.566740199996275,7,1.5336184999905527,1.684359899998526,1,2.9626812000060454,3.096174999998766,,,51.0,66.0,98754,60.0,
-152,-152,0,15,3,243,13,,,,,,,,,,,session,3268.002575099992,132.0,2.0,72.0,0.032397797307187205,5,1.5821207000117283,1.748982100005378,1,0.3293357000075048,0.47920680000970606,0,0.5503498000034597,0.7004952999996021,,,51.0,48.0,98754,60.0,
-152,-152,90,15,4,244,15,,,,,,,,,,,session,3276.2354164999997,126.0,2.0,72.0,0.032397797307187205,4,0.6365435000043362,0.8200340000039432,1,0.26485250001132954,0.36482250000699423,0,0.46601959998952225,0.5657719999871915,,,72.0,48.0,98754,60.0,
-152,152,90,15,5,245,7,,,,,,,,,,,session,3283.524771199998,126.0,2.0,72.0,0.032397797307187205,2,0.5982899999944493,0.7111817999975756,6,0.9290586999995867,1.1137451000104193,0,0.797081500000786,0.9317297999950824,,,69.0,54.0,98754,60.0,
-152,-152,-45,15,6,246,12,,,,,,,,,,,session,3292.5005882999976,162.0,2.0,72.0,0.032397797307187205,4,0.8071331999963149,0.9410218999983044,6,0.3805817999964347,0.5316890999965835,0,0.3809811999963131,0.5484173000004375,,,72.0,69.0,98754,60.0,
152,-152,45,15,7,247,10,,,,,,,,,,,session,3301.0394495999935,156.0,2.0,72.0,0.032397797307187205,4,0.27812180000182707,0.46254740000586025,7,1.674704399993061,1.788027399990824,0,1.9580385000008391,2.1244955000001937,,,72.0,66.0,98754,60.0,
152,-152,90,15,8,248,11,,,,,,,,,,,session,3311.8536034999997,150.0,2.0,72.0,0.032397797307187205,4,0.4901940999989165,0.6594990000012331,6,1.3794381000043359,1.5455373000004329,1,2.035126799994032,2.2180146999889985,,,57.0,69.0,98754,60.0,
152,152,45,15,9,249,2,,,,,,,,,,,session,3322.3379930999945,132.0,2.0,72.0,0.032397797307187205,4,0.7622864000004483,0.9289816000091378,1,3.783353300008457,3.9064179999986663,0,0.30974880000576377,0.4597766000078991,,,60.0,69.0,98754,60.0,
-152,152,-45,15,10,250,4,,,,,,,,,,,session,3333.4371143000026,132.0,2.0,72.0,0.032397797307187205,2,0.3297177000058582,0.3953326000046218,1,0.631036499995389,0.7810830999951577,1,1.6980913000006694,1.8648225000069942,,,63.0,69.0,98754,60.0,
152,152,90,15,11,251,3,,,,,,,,,,,session,3342.335782199996,162.0,2.0,72.0,0.032397797307187205,5,0.4483712000073865,0.5806655000051251,6,0.7139566000114428,0.8113331000058679,1,2.1128041000047233,2.2387517000024673,,,63.0,48.0,98754,60.0,
152,-152,0,15,12,252,9,,,,,,,,,,,session,3351.964130399996,156.0,2.0,72.0,0.032397797307187205,4,0.3741496000002371,0.4910644999908982,0,0.7961264999903506,0.8985162999888416,1,1.618524499994237,1.7022543999919435,,,48.0,48.0,98754,60.0,
152,-152,-45,15,13,253,8,,,,,,,,,,,session,3361.2019285999995,180.0,2.0,72.0,0.032397797307187205,4,0.3776198999985354,0.5114047000097344,1,0.7068042000028072,0.8235367000015685,1,1.0285100000037346,1.1285538000083761,,,48.0,63.0,98754,60.0,
-152,152,0,15,14,254,5,,,,,,,,,,,session,3369.9567765999964,174.0,2.0,72.0,0.032397797307187205,4,0.7605726000037976,0.910590500003309,1,1.2312940999981947,1.314299799996661,0,0.4465332999970997,0.4966316000063671,,,72.0,69.0,98754,60.0,
-152,-152,45,15,15,255,14,,,,,,,,,,,session,3379.584911500002,144.0,2.0,72.0,0.032397797307187205,3,0.01092159999825526,0.012850500002969056,6,1.731730699990294,1.8484962999937125,1,1.1084223000070779,1.225421600000118,,,54.0,48.0,98754,60.0,
152,152,0,16,0,256,1,,,,,,,,,,,session,3388.2398456999945,132.0,2.0,72.0,0.032397797307187205,4,0.7299165000003995,0.8967433999932837,1,0.011103600001661107,0.16332259999762755,0,0.011337700008880347,0.04235780000453815,,,60.0,51.0,98754,60.0,
-152,152,90,16,1,257,7,,,,,,,,,,,session,3394.8402984999993,144.0,2.0,72.0,0.032397797307187205,2,0.8916269999899669,0.9915897000028053,6,0.5253719000029378,0.6589531999925384,1,0.2936746000050334,0.4105534000118496,,,66.0,63.0,98754,60.0,
152,-152,0,16,2,258,9,,,,,,,,,,,session,3403.5041200999985,156.0,2.0,72.0,0.032397797307187205,4,0.4508943000109866,0.5676660000026459,0,0.46305629999551456,0.6139958999992814,1,0.28084120000130497,0.4284798000007868,,,57.0,54.0,98754,60.0,
-152,-152,0,16,3,259,13,,,,,,,,,,,session,3411.0195940999984,144.0,2.0,72.0,0.032397797307187205,3,0.011155100000905804,0.08308630000101402,0,0.578581399997347,0.7115257999976166,1,0.8602707999962149,1.0268420999927912,,,60.0,54.0,98754,60.0,
-152,-152,0,16,3,259,13,,,materials/instructions\12_break.png,3418.6257952000014,3445.3988574999967,0,26.704489299998386,26.771060800005216,0.019949000008637086,26.778821900006733,,,,,,,,,,,,,,,,,,,,98754,60.0,
152,152,45,16,4,260,2,,,,,,,,,,,session,3445.415158399992,150.0,2.0,72.0,0.032397797307187205,5,0.4010460999998031,0.5011289999965811,1,1.1097958000027575,1.2756917999940924,1,0.5343342999985907,0.6862588999938453,,,48.0,69.0,98754,60.0,
-152,-152,-45,16,5,261,12,,,,,,,,,,,session,3453.7908655999927,150.0,2.0,72.0,0.032397797307187205,3,0.12821550000808202,0.29566390000400133,1,0.5633144000021275,0.6803791999991518,1,2.092344199991203,2.1755673000006936,,,66.0,72.0,98754,60.0,
-152,-152,90,16,6,262,15,,,,,,,,,,,session,3463.170863099993,150.0,2.0,72.0,0.032397797307187205,3,0.3760301000002073,0.5257457999978215,6,1.678490000005695,1.7965799000085099,1,0.32925959999556653,0.4130086999939522,,,54.0,72.0,98754,60.0,
-152,152,-45,16,7,263,4,,,,,,,,,,,session,3472.3349085999944,126.0,2.0,72.0,0.032397797307187205,2,0.06310290000692476,0.16656260000308976,1,0.5441100000025472,0.5921125000022585,1,1.4153901000099722,1.5818288000009488,,,57.0,57.0,98754,60.0,
152,-152,45,16,8,264,10,,,,,,,,,,,session,3480.1260220999975,174.0,2.0,72.0,0.032397797307187205,4,0.0113771999895107,0.013282399988383986,7,1.953473400004441,2.0867322999984026,6,0.5140354999894043,0.6640283000015188,,,63.0,60.0,98754,60.0,
152,152,-45,16,9,265,0,,,,,,,,,,,session,3489.385324200004,174.0,2.0,72.0,0.032397797307187205,3,0.8645296999893617,1.046825199999148,1,1.125749899991206,1.2758433999988483,0,0.40876180000486784,0.5250661000027321,,,72.0,57.0,98754,60.0,
152,-152,-45,16,10,266,8,,,,,,,,,,,session,3498.7223147999903,132.0,2.0,72.0,0.032397797307187205,4,0.010827000005519949,0.09799080000084359,7,1.4605086000083247,1.577649900005781,1,1.3816039000084857,1.5313010000099894,,,63.0,57.0,98754,60.0,
-152,-152,45,16,11,267,14,,,,,,,,,,,session,3507.571419400003,168.0,2.0,72.0,0.032397797307187205,3,0.7269123000005493,0.9435987000033492,7,1.214103399994201,1.3477386000013212,1,0.49573309998959303,0.5952069999912055,,,54.0,48.0,98754,60.0,
152,152,90,16,12,268,3,,,,,,,,,,,session,3516.5687316999974,168.0,2.0,72.0,0.032397797307187205,5,0.9285720000043511,1.060555399992154,6,0.9652743000042392,1.0168779000086943,1,0.7595837999979267,0.8427288999955636,,,66.0,69.0,98754,60.0,
152,-152,90,16,13,269,11,,,,,,,,,,,session,3526.009030000001,168.0,2.0,72.0,0.032397797307187205,4,0.010862800001632422,0.012812000000849366,6,0.7621612999937497,0.9425039999914588,1,0.7426723999960814,0.8262725999957183,,,57.0,66.0,98754,60.0,
-152,152,45,16,14,270,6,,,,,,,,,,,session,3534.717450600001,132.0,2.0,72.0,0.032397797307187205,2,1.2413329999981215,1.3583738000015728,7,0.6490479999920353,0.7985631999908946,6,0.47972139999910723,0.6798821999982465,,,48.0,69.0,98754,60.0,
-152,152,0,16,15,271,5,,,,,,,,,,,session,3543.1565664999944,150.0,2.0,72.0,0.032397797307187205,2,0.43131530001119245,0.5655831000040052,0,0.7116154000104871,0.7783059000066714,1,1.1883700000034878,1.2935418999986723,,,69.0,57.0,98754,60.0,
152,-152,45,17,0,272,10,,,,,,,,,,,session,3551.8384183000016,138.0,2.0,72.0,0.032397797307187205,4,1.0585150999977486,1.2079929000028642,7,1.7861822999984724,1.9529863000061596,1,1.7956639000040013,1.9290779000002658,,,69.0,48.0,98754,60.0,
-152,152,90,17,1,273,7,,,,,,,,,,,session,3562.920782400004,138.0,2.0,72.0,0.032397797307187205,4,0.8590861999982735,1.0425732000003336,1,0.6457123000000138,0.7624273999972502,0,2.9374489999900106,3.0052897999994457,,,63.0,63.0,98754,60.0,
152,152,90,17,2,274,3,,,,,,,,,,,session,3573.5897762999957,180.0,2.0,72.0,0.032397797307187205,5,0.4477887999964878,0.5979126999882283,1,1.1321944999945117,1.2148430999950506,1,0.30106830000295304,0.39980639998975676,,,60.0,54.0,98754,60.0,
-152,-152,90,17,3,275,15,,,,,,,,,,,session,3582.4567913999927,126.0,2.0,72.0,0.032397797307187205,3,0.8605220000026748,1.0297010999929626,6,0.5087907999986783,0.6087884000007762,1,0.7620012999977916,0.9456030000001192,,,57.0,69.0,98754,60.0,
152,-152,90,17,4,276,11,,,,,,,,,,,session,3590.7105779999983,132.0,2.0,72.0,0.032397797307187205,4,0.27622770000016317,0.4679552000015974,6,0.8556801000086125,0.9891319000016665,1,0.757104000003892,0.8071422000066377,,,54.0,69.0,98754,60.0,
-152,152,45,17,5,277,6,,,,,,,,,,,session,3598.669020699992,144.0,2.0,72.0,0.032397797307187205,2,2.3588415999984136,2.492207799994503,6,0.3106397000083234,0.4940628000040306,0,0.39465600000403356,0.5280678999988595,,,48.0,66.0,98754,60.0,
-152,-152,45,17,6,278,14,,,,,,,,,,,session,3607.9551513999904,168.0,2.0,72.0,0.032397797307187205,4,0.6150541999959387,0.8792283999937354,1,0.4114243000076385,0.5623723000026075,0,0.42785030000959523,0.5441339999961201,,,63.0,48.0,98754,60.0,
-152,-152,-45,17,7,279,12,,,,,,,,,,,session,3616.0288059000013,174.0,2.0,72.0,0.032397797307187205,3,0.1584973999997601,0.29232709998905193,1,1.7788919000013266,1.8612735000060638,7,0.7956395000073826,0.8457329000084428,,,54.0,57.0,98754,60.0,
-152,-152,-45,17,7,279,12,,,materials/instructions\12_break.png,3625.9978278999915,3663.2964623000007,0,37.163234100007685,37.29665329999989,0.022974699997575954,37.30859210000199,,,,,,,,,,,,,,,,,,,,98754,60.0,
-152,152,0,17,8,280,5,,,,,,,,,,,session,3663.317196499993,138.0,2.0,72.0,0.032397797307187205,5,1.2894365999964066,1.4748151000094367,1,0.3122224999970058,0.4122704000037629,0,0.40686259999347385,0.5567878000001656,,,60.0,54.0,98754,60.0,
152,152,45,17,9,281,2,,,,,,,,,,,session,3671.4534585999936,168.0,2.0,72.0,0.032397797307187205,5,0.4120852000050945,0.5789329999970505,1,0.7110951000067871,0.8779769999964628,1,0.36317520000739023,0.5128503000014462,,,69.0,60.0,98754,60.0,
152,-152,0,17,10,282,9,,,,,,,,,,,session,3679.8286418999924,126.0,2.0,72.0,0.032397797307187205,4,0.2526936999929603,0.4251806999964174,0,0.38980289999744855,0.47734670000500046,1,1.1473560000013094,1.2640775000036228,,,63.0,66.0,98754,60.0,
152,152,-45,17,11,283,0,,,,,,,,,,,session,3687.8372181000013,156.0,2.0,72.0,0.032397797307187205,5,1.331624099999317,1.465553900008672,1,0.7279366000002483,0.859260400000494,1,0.30082479999691714,0.38325430000259075,,,57.0,60.0,98754,60.0,
152,-152,-45,17,12,284,8,,,,,,,,,,,session,3696.556771299991,150.0,2.0,72.0,0.032397797307187205,4,0.010835099994437769,0.012721199993393384,7,1.5999091000121552,1.7840870000072755,1,0.4831560000020545,0.565622500012978,,,60.0,63.0,98754,60.0,
152,152,0,17,13,285,1,,,,,,,,,,,session,3704.914772399992,138.0,2.0,72.0,0.032397797307187205,5,0.3754943999956595,0.45882619998883456,0,0.3965217999939341,0.49426900000253227,1,1.0432986999949208,1.1767382999969414,,,60.0,54.0,98754,60.0,
-152,-152,0,17,14,286,13,,,,,,,,,,,session,3713.3068466999975,138.0,2.0,72.0,0.032397797307187205,5,0.8559600000007777,1.039293000008911,7,0.8833578000048874,1.0687520000064978,0,0.24796820001211017,0.4481043999985559,,,72.0,63.0,98754,60.0,
-152,152,-45,17,15,287,4,,,,,,,,,,,session,3721.875361899991,156.0,2.0,72.0,0.032397797307187205,2,0.29938580001180526,0.38196090000565164,1,0.6173950999946101,0.7508713999995962,1,0.371597200006363,0.4759914000023855,,,69.0,51.0,98754,60.0,
152,-152,0,18,0,288,9,,,,,,,,,,,session,3729.539677099994,156.0,2.0,72.0,0.032397797307187205,4,0.09411020000698045,0.2587056000047596,0,0.44144080000114627,0.5747962000023108,1,0.9149879000033252,1.0151044000085676,,,54.0,69.0,98754,60.0,
152,152,90,18,1,289,3,,,,,,,,,,,session,3737.5048886000004,150.0,2.0,72.0,0.032397797307187205,5,0.5152355999889551,0.6486299999960465,6,1.8176407999999356,1.9828472000081092,1,0.5607635000051232,0.6773828000004869,,,66.0,60.0,98754,60.0,
152,152,0,18,2,290,1,,,,,,,,,,,session,3746.860949199996,180.0,2.0,72.0,0.032397797307187205,5,0.3230340000009164,0.47299280000152066,0,0.9755463000037707,1.12813530000858,1,0.2582327000127407,0.35903370000596624,,,48.0,51.0,98754,60.0,
-152,152,-45,18,3,291,4,,,,,,,,,,,session,3755.5540844999923,144.0,2.0,72.0,0.032397797307187205,2,0.4236276000010548,0.49020119999477174,7,0.9934101999970153,1.159140399991884,1,0.2757958000001963,0.3596957999980077,,,51.0,54.0,98754,60.0,
152,-152,-45,18,4,292,8,,,,,,,,,,,session,3763.175077599997,162.0,2.0,72.0,0.032397797307187205,4,0.010780399999930523,0.012597799999639392,1,0.5957825999939814,0.696620399990934,1,0.6506854999897769,0.7826157999952557,,,51.0,57.0,98754,60.0,
-152,-152,-45,18,5,293,12,,,,,,,,,,,session,3770.6140515000006,132.0,2.0,72.0,0.032397797307187205,3,0.3399694000108866,0.5565368000097806,1,0.36078239999187645,0.4440864999924088,1,0.6265641000063624,0.7262457000033464,,,60.0,51.0,98754,60.0,
-152,-152,0,18,6,294,13,,,,,,,,,,,session,3778.453982699997,138.0,2.0,72.0,0.032397797307187205,3,0.7131225000048289,0.7464890999981435,7,0.8048351000034017,0.9530290000111563,1,0.2486464999965392,0.34878759999992326,,,57.0,57.0,98754,60.0,
152,-152,90,18,7,295,11,,,,,,,,,,,session,3786.141241999998,180.0,2.0,72.0,0.032397797307187205,4,0.5920547999994596,0.8088002000004053,7,1.132366899997578,1.2828274000057718,1,0.17546119999315124,0.2858506999909878,,,72.0,54.0,98754,60.0,
-152,152,90,18,8,296,7,,,,,,,,,,,session,3795.1187154999934,162.0,2.0,72.0,0.032397797307187205,4,0.6477955000009388,0.8123310000082711,1,0.405332800000906,0.5055137000017567,0,2.6490065999969374,2.8007182000001194,,,72.0,54.0,98754,60.0,
152,152,45,18,9,297,2,,,,,,,,,,,session,3805.7256283000024,162.0,2.0,72.0,0.032397797307187205,5,0.1779746999964118,0.29472180000448134,7,1.5349724999978207,1.5700559000106296,1,0.034940800003823824,0.18567910000274424,,,51.0,69.0,98754,60.0,
152,152,-45,18,10,298,0,,,,,,,,,,,session,3813.9122986,168.0,2.0,72.0,0.032397797307187205,5,0.30440969999472145,0.45767269999487326,1,1.0645090000034543,1.1645304000121541,1,1.2147621999902185,1.2973664999881294,,,69.0,69.0,98754,60.0,
-152,152,0,18,11,299,5,,,,,,,,,,,session,3824.0063162000006,126.0,2.0,72.0,0.032397797307187205,5,0.9134660999989137,1.0641671999910614,7,0.4464013000106206,0.6464012000069488,0,0.27956880000419915,0.48020099999848753,,,48.0,54.0,98754,60.0,
-152,152,0,18,11,299,5,,,materials/instructions\12_break.png,3831.4753456999897,3868.253029899992,0,36.625369500005036,36.77549499999441,0.018123300003935583,36.78332380000211,,,,,,,,,,,,,,,,,,,,98754,60.0,
-152,-152,45,18,12,300,14,,,,,,,,,,,session,3868.2692057999957,180.0,2.0,72.0,0.032397797307187205,5,1.9584787999920081,2.108386799998698,1,0.4979784000024665,0.5992126000055578,0,0.5673829000006663,0.6841597000020556,,,63.0,48.0,98754,60.0,
-152,152,45,18,13,301,6,,,,,,,,,,,session,3877.9631502999982,168.0,2.0,72.0,0.032397797307187205,5,0.6215303000062704,0.7550617999950191,1,0.29000140000425745,0.4111459999985527,0,0.30942879999929573,0.5096572999900673,,,57.0,51.0,98754,60.0,
152,-152,45,18,14,302,10,,,,,,,,,,,session,3885.7715892999986,132.0,2.0,72.0,0.032397797307187205,4,1.6286549999931594,1.7622953999962192,7,0.9140551000018604,1.0639748999965377,1,0.5434425999992527,0.626845399994636,,,63.0,69.0,98754,60.0,
-152,-152,90,18,15,303,15,,,,,,,,,,,session,3895.0909140000003,132.0,2.0,72.0,0.032397797307187205,3,0.31600340000295546,0.43375599999853875,6,0.41865629999665543,0.5340984000067692,1,0.2302373999991687,0.34737180000229273,,,57.0,54.0,98754,60.0,
152,-152,-45,19,0,304,8,,,,,,,,,,,session,3901.8976564999903,180.0,2.0,72.0,0.032397797307187205,4,0.13949039998988155,0.17653840000275522,1,0.6649368999933358,0.7481645999941975,1,0.22463579999748617,0.3241880999994464,,,60.0,69.0,98754,60.0,
-152,-152,0,19,1,305,13,,,,,,,,,,,session,3910.4212138000003,180.0,2.0,72.0,0.032397797307187205,4,0.661986799997976,0.8621744999982184,1,0.5595122000086121,0.6926898000092478,0,0.010925499998847954,0.012828999999328516,,,63.0,72.0,98754,60.0,
152,-152,90,19,2,306,11,,,,,,,,,,,session,3918.710070400004,162.0,2.0,72.0,0.032397797307187205,4,0.5477467000018805,0.6808064000069862,6,0.4428126999991946,0.5425255999871297,1,0.2770301999989897,0.37708869999914896,,,60.0,69.0,98754,60.0,
-152,152,45,19,3,307,6,,,,,,,,,,,session,3926.6074747999955,168.0,2.0,72.0,0.032397797307187205,2,1.6069890999933705,1.7069925999967381,7,1.3474925000045914,1.4952870000124676,1,0.7473641999968095,0.8471794000070076,,,69.0,60.0,98754,60.0,
-152,152,-45,19,4,308,4,,,,,,,,,,,session,3937.5409483999974,168.0,2.0,72.0,0.032397797307187205,2,0.41603809999651276,0.549705500001437,7,0.5433326000056695,0.6768044000054942,1,0.24730790000467096,0.34742270001152065,,,69.0,69.0,98754,60.0,
152,152,45,19,5,309,2,,,,,,,,,,,session,3945.663887200004,126.0,2.0,72.0,0.032397797307187205,5,0.6372648000105983,0.7709525000100257,1,1.0800750000053085,1.1633654000033857,1,0.360911900002975,0.46090920000278857,,,60.0,54.0,98754,60.0,
-152,-152,45,19,6,310,14,,,,,,,,,,,session,3953.7214340999926,150.0,2.0,72.0,0.032397797307187205,4,0.7108404000027804,0.8776363000069978,1,0.346411700011231,0.4464592000003904,0,0.5442151000024751,0.6451205000048503,,,48.0,69.0,98754,60.0,
152,-152,0,19,7,311,9,,,,,,,,,,,session,3961.6091985999956,126.0,2.0,72.0,0.032397797307187205,4,0.21810520000872202,0.4182846000039717,0,0.3617890999885276,0.49436169999535196,1,0.6943912999995518,0.8111463999957778,,,51.0,69.0,98754,60.0,
152,152,90,19,8,312,3,,,,,,,,,,,session,3968.8638358000026,168.0,2.0,72.0,0.032397797307187205,5,0.46166839999204967,0.5976224999903934,6,1.3571412000019336,1.4738469000003533,1,1.5699507999961497,1.6848796999984188,,,69.0,51.0,98754,60.0,
152,-152,45,19,9,313,10,,,,,,,,,,,session,3979.4733945999906,144.0,2.0,72.0,0.032397797307187205,4,0.01236609999614302,0.1584800999989966,7,1.6432959999947343,1.7766209999972489,1,0.8845682999963174,1.0347741000005044,,,54.0,60.0,98754,60.0,
-152,152,90,19,10,314,7,,,,,,,,,,,session,3988.1822459999967,150.0,2.0,72.0,0.032397797307187205,2,0.46319969999603927,0.5630984000017634,6,1.1852451000013389,1.3186035999970045,1,0.8463679999986198,0.9612097000062931,,,48.0,69.0,98754,60.0,
-152,-152,90,19,11,315,15,,,,,,,,,,,session,3997.056006300001,132.0,2.0,72.0,0.032397797307187205,5,1.53100319999794,1.6808894999994664,6,0.5288754000066547,0.6789718000072753,0,1.3972366999951191,1.547371299995575,,,69.0,57.0,98754,60.0,
-152,-152,-45,19,12,316,12,,,,,,,,,,,session,4006.727109600004,150.0,2.0,72.0,0.032397797307187205,3,0.41086239999276586,0.5795994999934919,1,3.5748220999957994,3.7248248999967473,1,0.4917557000007946,0.6266816000133986,,,66.0,63.0,98754,60.0,
152,152,-45,19,13,317,0,,,,,,,,,,,session,4017.757189900003,150.0,2.0,72.0,0.032397797307187205,4,1.0721455000020796,1.2555666999978712,1,0.6631359000020893,0.7431835000024876,0,2.011455300002126,2.1282054999901447,,,57.0,54.0,98754,60.0,
152,152,0,19,14,318,1,,,,,,,,,,,session,4027.6917931999924,132.0,2.0,72.0,0.032397797307187205,5,0.4557656999968458,0.6210537000006298,0,0.8477767000003951,0.9490694999985863,1,3.98514210000576,4.088915800006362,,,57.0,72.0,98754,60.0,
-152,152,0,19,15,319,5,,,,,,,,,,,session,4039.1431225999986,180.0,2.0,72.0,0.032397797307187205,4,0.8569516999996267,1.0231999000097858,7,0.33398789999773726,0.5175173999887193,0,0.32813809999788646,0.46171019999019336,,,69.0,48.0,98754,60.0,
-152,152,0,19,15,319,5,,,materials/instructions\12_break.png,4047.588111099991,4080.813851500003,0,33.16347420000238,33.22371170000406,0.020263900005375035,33.238614400004735,,,,,,,,,,,,,,,,,,,,98754,60.0,
-152,152,45,20,0,320,6,,,,,,,,,,,session,4080.8370349000033,132.0,2.0,72.0,0.032397797307187205,5,1.8808720000088215,2.030928699998185,1,0.3261880999925779,0.4096012999943923,0,0.4073415000020759,0.5440827999991598,,,57.0,57.0,98754,60.0,
152,-152,-45,20,1,321,8,,,,,,,,,,,session,4089.9926202999923,132.0,2.0,72.0,0.032397797307187205,4,0.3110843000031309,0.4934234000102151,1,0.827594999995199,0.9446814999973867,1,1.648935099990922,1.7489825999946333,,,63.0,63.0,98754,60.0,
152,152,45,20,2,322,2,,,,,,,,,,,session,4098.932965500004,150.0,2.0,72.0,0.032397797307187205,4,0.6060184000089066,0.7915375000011409,7,0.25729710000450723,0.4127957000018796,0,0.645375599997351,0.7789516000048025,,,54.0,63.0,98754,60.0,
-152,152,0,20,3,323,5,,,,,,,,,,,session,4106.8108679,174.0,2.0,72.0,0.032397797307187205,4,0.6568337999924552,0.8378839999932097,6,0.27410100000270177,0.42303250000986736,0,0.3142410000000382,0.46451629999501165,,,72.0,72.0,98754,60.0,
-152,-152,90,20,4,324,15,,,,,,,,,,,session,4115.291697799999,132.0,2.0,72.0,0.032397797307187205,4,0.599510799991549,0.7496641000034288,1,0.2997468999965349,0.36463319999165833,0,0.3780893999937689,0.5279822000011336,,,69.0,69.0,98754,60.0,
152,152,90,20,5,325,3,,,,,,,,,,,session,4122.880588,162.0,2.0,72.0,0.032397797307187205,5,0.32253469999704976,0.45218300000124145,6,0.5954879999917466,0.7427343000017572,1,2.682617999991635,2.814919500000542,,,60.0,54.0,98754,60.0,
152,-152,90,20,6,326,11,,,,,,,,,,,session,4133.460551099997,144.0,2.0,72.0,0.032397797307187205,4,0.22699909999209922,0.35925130000396166,6,0.3779188000044087,0.4777812999964226,1,3.0180472000065492,3.083663199999137,,,63.0,60.0,98754,60.0,
152,-152,45,20,7,327,10,,,,,,,,,,,session,4143.28006189999,162.0,2.0,72.0,0.032397797307187205,4,0.011143199997604825,0.21548020000045653,7,1.3163141999975778,1.4501416999992216,1,0.6976437999983318,0.7978667999996105,,,72.0,69.0,98754,60.0,
-152,152,90,20,8,328,7,,,,,,,,,,,session,4152.360436000003,180.0,2.0,72.0,0.032397797307187205,4,0.9777246000012383,1.1778331000095932,1,0.6641647999931592,0.7808972000057111,1,0.010915400009253062,0.01284019999729935,,,48.0,69.0,98754,60.0,
-152,-152,0,20,9,329,13,,,,,,,,,,,session,4160.742302400002,162.0,2.0,72.0,0.032397797307187205,3,0.07827080000424758,0.22927660000277683,0,0.6301468000019668,0.7468483999982709,1,0.8634277999954065,0.9967478000035044,,,57.0,57.0,98754,60.0,
-152,152,-45,20,10,330,4,,,,,,,,,,,session,4168.766357100001,168.0,2.0,72.0,0.032397797307187205,2,0.7927760000020498,0.9597611999924993,7,1.4104009000002407,1.5936170000059064,1,0.29741959999955725,0.3641866999969352,,,54.0,57.0,98754,60.0,
-152,-152,45,20,11,331,14,,,,,,,,,,,session,4178.39368329999,138.0,2.0,72.0,0.032397797307187205,4,0.6606497000029776,0.8126042000076268,6,0.33119920000899583,0.4664690000063274,0,0.2944870999926934,0.39662279999174643,,,57.0,60.0,98754,60.0,
152,152,-45,20,12,332,0,,,,,,,,,,,session,4185.763500400004,168.0,2.0,72.0,0.032397797307187205,5,0.3485142999998061,0.4652542999974685,1,0.8349699999962468,0.9685842000035336,1,0.8224945999972988,0.9557894999888958,,,48.0,72.0,98754,60.0,
152,-152,0,20,13,333,9,,,,,,,,,,,session,4194.440171199996,126.0,2.0,72.0,0.032397797307187205,4,0.3303970999986632,0.49745580001035705,7,0.8805998000025284,1.0120841000025393,1,0.8249449999857461,0.9417199999879813,,,72.0,63.0,98754,60.0,
-152,-152,-45,20,14,334,12,,,,,,,,,,,session,4202.708903999999,150.0,2.0,72.0,0.032397797307187205,3,0.010899799992330372,0.14532589999726042,1,0.6974959000071976,0.797866900000372,1,0.6995519999909448,0.7993430999922566,,,48.0,51.0,98754,60.0,
152,152,0,20,15,335,1,,,,,,,,,,,session,4210.048598399997,150.0,2.0,72.0,0.032397797307187205,5,0.5255881999910343,0.6372403999994276,7,1.3722735999908764,1.5059064999950351,1,0.5092807000037283,0.6423293999978341,,,72.0,51.0,98754,60.0,
