x,y,orientation,.thisRepN,.thisTrialN,.thisN,.thisIndex,.stepSize,.intensity,image_name,global_start_time,global_end_time,pressKey,pressRT,releaseRT,image_started,image_ended,name,globalTime,fixation_dur,stimulation_dur,post_fixation,opacity,locationResponse_pressKey,locationResponse_pressRT,locationResponse_releaseRT,orientationResponse_pressKey,orientationResponse_pressRT,orientationResponse_releaseRT,pasResponse_pressKey,pasResponse_pressRT,pasResponse_releaseRT,.response,finalOpacity,postLoc,postOri,ID,frameRate,
,,,0,-1,-1,0,0.0969100130080564,None,materials/instructions\1_welcome.png,2.5216752999986056,32.74891100000241,0,30.07190530002117,30.22519630001625,0.058691800019005314,30.228451300004963,,,,,,,,,,,,,,,,,,,,lauratest,60.0,
,,,0,-1,-1,0,0.0969100130080564,None,materials/instructions\2_instruction.png,32.80371490001562,42.885589400015306,0,9.930618399986997,10.079777700011618,0.015541900007519871,10.087779099994805,,,,,,,,,,,,,,,,,,,,lauratest,60.0,
,,,0,-1,-1,0,0.0969100130080564,None,materials/instructions\3_location_demo.png,42.93906480001169,47.43821059999755,0,4.2965937000117265,4.49702830001479,0.015772000013384968,4.503881100012222,,,,,,,,,,,,,,,,,,,,lauratest,60.0,
,,,0,-1,-1,0,0.0969100130080564,None,materials/instructions\4_orientation_demo.png,47.48474760001409,65.20324410000467,0,17.53206009999849,17.715484499989543,0.024337500013643876,17.72311570000602,,,,,,,,,,,,,,,,,,,,lauratest,60.0,
,,,0,-1,-1,0,0.0969100130080564,None,materials/instructions\5_pas_demo.png,65.25585779998801,78.29881249999744,0,12.891319199989084,13.041262000013376,0.01658209998277016,13.048911699996097,,,,,,,,,,,,,,,,,,,,lauratest,60.0,
77,77,0,0,-1,-1,0,0.0969100130080564,None,,,,,,,,,session,78.3152820999967,144.0,2.0,72.0,1.0,5,1.376222000020789,1.727072000008775,0,1.874235299997963,2.124383599992143,7,2.1205423999927007,2.2873313000018243,,,,,lauratest,60.0,
-77,77,-45,0,-1,-1,0,0.0969100130080564,None,,,,,,,,,session,88.23841479999828,138.0,2.0,72.0,1.0,2,1.1023814999789465,1.3192118000006303,1,2.618532000022242,2.8574804000090808,7,0.6920007000153419,0.8922100000199862,,,,,lauratest,60.0,
77,77,-45,0,-1,-1,0,0.0969100130080564,None,,,,,,,,,session,96.99825559998862,126.0,2.0,72.0,1.0,5,0.9319785999832675,1.1985624999797437,1,1.3548622999805957,1.6049316999851726,7,0.36336399998981506,0.5446051000035368,,,,,lauratest,60.0,
77,77,45,0,-1,-1,0,0.0969100130080564,None,,,,,,,,,session,103.9845908000134,144.0,2.0,72.0,1.0,5,0.8815004000207409,1.1328907000133768,7,3.941188199998578,4.174550399999134,7,0.9254846999829169,1.0754752999928314,,,,,lauratest,60.0,
77,77,90,0,-1,-1,0,0.0969100130080564,None,,,,,,,,,session,114.14210860000458,180.0,2.0,72.0,1.0,5,0.7441973999957554,0.8775671999901533,6,1.7764299999980722,1.912111499987077,7,3.0458479000080843,3.1606868999951985,,,,,lauratest,60.0,
,,,0,-1,-1,0,0.0969100130080564,None,materials/instructions\10_staircase_start.png,125.05021370001487,136.60646260000067,5,11.371590700000525,11.55415539999376,0.019485400000121444,11.563003500021296,,,,,,,,,,,,,,,,,,,,lauratest,60.0,
,,,0,0,-1,0,0.0969100130080564,0.2,,,,,,,,,staircase,136.62234619999072,138.0,2.0,72.0,0.2,,,,6,1.052160899998853,1.187833000003593,,,,1,,,,lauratest,60.0,
,,,0,1,-1,0,0.0969100130080564,0.16,,,,,,,,,staircase,141.8834499999939,168.0,2.0,72.0,0.16,,,,6,1.4870273999986239,1.620334700011881,,,,1,,,,lauratest,60.0,
,,,0,2,-1,0,0.0969100130080564,0.128,,,,,,,,,staircase,147.63399289999506,144.0,2.0,72.0,0.128,,,,1,2.0557016999810003,2.2392522000009194,,,,1,,,,lauratest,60.0,
,,,0,3,-1,0,0.0969100130080564,0.1024,,,,,,,,,staircase,153.6037200000137,156.0,2.0,72.0,0.1024,,,,0,1.1885691999923438,1.438259599992307,,,,1,,,,lauratest,60.0,
,,,0,4,-1,0,0.0969100130080564,0.08192,,,,,,,,,staircase,158.95778890000656,156.0,2.0,72.0,0.08192,,,,1,1.3833639999793377,1.5786445999983698,,,,1,,,,lauratest,60.0,
,,,0,5,-1,0,0.0969100130080564,0.06553600000000001,,,,,,,,,staircase,164.88178550000885,126.0,2.0,72.0,0.06553600000000001,,,,1,0.7472881999856327,0.9305694999929983,,,,1,,,,lauratest,60.0,
,,,0,6,-1,0,0.0969100130080564,0.05242880000000001,,,,,,,,,staircase,169.21861489998992,144.0,2.0,72.0,0.05242880000000001,,,,7,1.0724274000094738,1.2873834999918472,,,,1,,,,lauratest,60.0,
,,,0,7,-1,0,0.0969100130080564,0.04194304000000001,,,,,,,,,staircase,174.21929169999203,132.0,2.0,72.0,0.04194304000000001,,,,0,0.9411719999916386,1.1392911000002641,,,,1,,,,lauratest,60.0,
,,,0,8,-1,0,0.0969100130080564,0.03355443200000001,,,,,,,,,staircase,178.87257669999963,132.0,2.0,72.0,0.03355443200000001,,,,6,1.1940009999962058,1.2935814000084065,,,,1,,,,lauratest,60.0,
,,,0,9,-1,0,0.0969100130080564,0.026843545600000008,,,,,,,,,staircase,183.6849494999915,150.0,2.0,72.0,0.026843545600000008,,,,7,1.4149282000144012,1.598294800001895,,,,1,,,,lauratest,60.0,
,,,0,10,-1,0,0.0969100130080564,0.021474836480000006,,,,,,,,,staircase,189.6665658999991,150.0,2.0,72.0,0.021474836480000006,,,,7,1.083271000010427,1.2646475000074133,,,,1,,,,lauratest,60.0,
,,,0,11,-1,0,0.0969100130080564,0.017179869184000003,,,,,,,,,staircase,194.75059450001572,144.0,2.0,72.0,0.017179869184000003,,,,1,2.240256299992325,2.4403662999975495,,,,1,,,,lauratest,60.0,
,,,0,12,-1,0,0.0969100130080564,0.013743895347200002,,,,,,,,,staircase,200.90701110000373,150.0,2.0,72.0,0.013743895347200002,,,,0,1.079307300009532,1.2957939000043552,,,,1,,,,lauratest,60.0,
,,,0,13,-1,0,0.0969100130080564,0.010995116277760002,,,,,,,,,staircase,206.01860730000772,144.0,2.0,72.0,0.010995116277760002,,,,0,1.067244399979245,1.2487700999772642,,,,1,,,,lauratest,60.0,
,,,0,14,-1,0,0.0969100130080564,0.008796093022208,,,,,,,,,staircase,211.4666251000017,150.0,2.0,72.0,0.008796093022208,,,,7,1.1567951000179164,1.2904821000120137,,,,0,,,,lauratest,60.0,
,,,0,15,-1,0,0.0969100130080564,0.010995116277760002,,,,,,,,,staircase,216.58764700000756,132.0,2.0,72.0,0.010995116277760002,,,,6,1.4048883000214119,1.57228860000032,,,,1,,,,lauratest,60.0,
,,,0,16,-1,0,0.0969100130080564,0.010995116277760002,,,,,,,,,staircase,221.67265230001067,156.0,2.0,72.0,0.010995116277760002,,,,6,0.7205801000236534,0.8544352000171784,,,,1,,,,lauratest,60.0,
,,,0,17,-1,0,0.0969100130080564,0.008796093022208,,,,,,,,,staircase,226.44188610001584,138.0,2.0,72.0,0.008796093022208,,,,0,0.744323799997801,0.8789156999846455,,,,0,,,,lauratest,60.0,
,,,0,18,-1,0,0.0969100130080564,0.010995116277760002,,,,,,,,,staircase,231.4533333000145,174.0,2.0,72.0,0.010995116277760002,,,,7,1.4192591999890283,1.5681810999813024,,,,0,,,,lauratest,60.0,
,,,0,19,-1,0,0.0969100130080564,0.013743895347200002,,,,,,,,,staircase,237.2519530999998,150.0,2.0,72.0,0.013743895347200002,,,,0,0.7503557000018191,0.9163442999997642,,,,0,,,,lauratest,60.0,
,,,0,20,-1,0,0.0969100130080564,0.017179869184000003,,,,,,,,,staircase,242.00355739999213,132.0,2.0,72.0,0.017179869184000003,,,,6,1.5068989999999758,1.6404439000179991,,,,1,,,,lauratest,60.0,
,,,0,21,-1,0,0.0969100130080564,0.017179869184000003,,,,,,,,,staircase,247.15882620000048,150.0,2.0,72.0,0.017179869184000003,,,,6,0.9198898000176996,1.0507718000153545,,,,0,,,,lauratest,60.0,
,,,0,22,-1,0,0.0969100130080564,0.021474836480000002,,,,,,,,,staircase,252.58672009999282,126.0,2.0,72.0,0.021474836480000002,,,,6,0.6362054999917746,0.7870202999911271,,,,0,,,,lauratest,60.0,
,,,0,23,-1,0,0.0969100130080564,0.026843545600000004,,,,,,,,,staircase,256.80107690001023,180.0,2.0,72.0,0.026843545600000004,,,,7,1.1508591000165325,1.283898900001077,,,,0,,,,lauratest,60.0,
,,,0,24,-1,0,0.0969100130080564,0.03355443200000001,,,,,,,,,staircase,262.4052675999992,162.0,2.0,72.0,0.03355443200000001,,,,1,1.0528591999900527,1.236143499991158,,,,1,,,,lauratest,60.0,
,,,0,25,-1,0,0.0969100130080564,0.03355443200000001,,,,,,,,,staircase,267.6575203000102,138.0,2.0,72.0,0.03355443200000001,,,,7,0.9067894000036176,1.096234500000719,,,,1,,,,lauratest,60.0,
,,,0,26,-1,0,0.0969100130080564,0.026843545600000008,,,,,,,,,staircase,272.36948180000763,156.0,2.0,72.0,0.026843545600000008,,,,7,0.9313316999759991,1.0820974999805912,,,,1,,,,lauratest,60.0,
,,,0,27,-1,0,0.0969100130080564,0.026843545600000008,,,,,,,,,staircase,277.85119829999167,150.0,2.0,72.0,0.026843545600000008,,,,7,0.6809238999849185,0.7809789000020828,,,,0,,,,lauratest,60.0,
,,,0,28,-1,0,0.0969100130080564,0.03355443200000001,,,,,,,,,staircase,282.4516214999894,168.0,2.0,72.0,0.03355443200000001,,,,0,1.1908016999950632,1.341096699994523,,,,1,,,,lauratest,60.0,
,,,0,29,-1,0,0.0969100130080564,0.03355443200000001,,,,,,,,,staircase,287.90606100001605,132.0,2.0,72.0,0.03355443200000001,,,,1,1.0546043000067584,1.2211374999897089,,,,1,,,,lauratest,60.0,
,,,0,30,-1,0,0.0969100130080564,0.026843545600000008,,,,,,,,,staircase,292.6451182999881,138.0,2.0,72.0,0.026843545600000008,,,,0,0.8872698999766726,1.0683077999856323,,,,1,,,,lauratest,60.0,
,,,0,31,-1,0,0.0969100130080564,0.026843545600000008,,,,,,,,,staircase,298.10002400001395,162.0,2.0,72.0,0.026843545600000008,,,,1,0.9140541999950074,1.0803575000027195,,,,1,,,,lauratest,60.0,
,,,0,32,-1,0,0.0969100130080564,0.021474836480000006,,,,,,,,,staircase,303.1847590999969,132.0,2.0,72.0,0.021474836480000006,,,,1,0.8584259000199381,1.04170790000353,,,,1,,,,lauratest,60.0,
,,,0,33,-1,0,0.0969100130080564,0.021474836480000006,,,,,,,,,staircase,307.73682610000833,138.0,2.0,72.0,0.021474836480000006,,,,1,0.33834139999817125,0.488251400005538,,,,1,,,,lauratest,60.0,
,,,0,34,-1,0,0.0969100130080564,0.017179869184000003,,,,,,,,,staircase,311.84132199999294,168.0,2.0,72.0,0.017179869184000003,,,,1,0.6196659000124782,0.7671421999984886,,,,0,,,,lauratest,60.0,
,,,0,35,-1,0,0.0969100130080564,0.021474836480000002,,,,,,,,,staircase,316.7692941999994,126.0,2.0,72.0,0.021474836480000002,,,,7,0.8316121000098065,0.964959800010547,,,,0,,,,lauratest,60.0,
,,,0,36,-1,0,0.0969100130080564,0.026843545600000004,,,,,,,,,staircase,321.63370939999004,138.0,2.0,72.0,0.026843545600000004,,,,1,0.5697639999852981,0.7366014999861363,,,,1,,,,lauratest,60.0,
,,,0,37,-1,0,0.0969100130080564,0.026843545600000004,,,,,,,,,staircase,325.98822060000384,168.0,2.0,72.0,0.026843545600000004,,,,6,1.07534520002082,1.1899330000160262,,,,1,,,,lauratest,60.0,
,,,0,38,-1,0,0.0969100130080564,0.021474836480000002,,,,,,,,,staircase,331.288707300002,156.0,2.0,72.0,0.021474836480000002,,,,6,6.3688641999906395,6.491441799997119,,,,1,,,,lauratest,60.0,
,,,0,39,-1,0,0.0969100130080564,0.021474836480000002,,,,,,,,,staircase,341.6951435999945,150.0,2.0,72.0,0.021474836480000002,,,,1,0.765477800014196,0.9486192000040319,,,,1,,,,lauratest,60.0,
,,,0,40,-1,0,0.0969100130080564,0.017179869184000003,,,,,,,,,staircase,346.4693918999983,174.0,2.0,72.0,0.017179869184000003,,,,7,0.8336389000178315,0.9662465000001248,,,,1,,,,lauratest,60.0,
,,,0,41,-1,0,0.0969100130080564,0.017179869184000003,,,,,,,,,staircase,351.6550997000013,180.0,2.0,72.0,0.017179869184000003,,,,7,0.351557199988747,0.46842230000765994,,,,0,,,,lauratest,60.0,
,,,0,42,-1,0,0.0969100130080564,0.021474836480000002,,,,,,,,,staircase,356.44101619999856,126.0,2.0,72.0,0.021474836480000002,,,,6,0.8159543999936432,0.9944513000082225,,,,1,,,,lauratest,60.0,
,,,0,43,-1,0,0.0969100130080564,0.021474836480000002,,,,,,,,,staircase,360.8484823000035,162.0,2.0,72.0,0.021474836480000002,,,,1,0.6344747999974061,0.8014082000008784,,,,0,,,,lauratest,60.0,
,,,0,44,-1,0,0.0969100130080564,0.026843545600000004,,,,,,,,,staircase,366.01810479999403,174.0,2.0,72.0,0.026843545600000004,,,,1,0.011647100007394329,0.013544400018872693,,,,0,,,,lauratest,60.0,
,,,0,45,-1,0,0.0969100130080564,0.03355443200000001,,,,,,,,,staircase,370.24590760000865,162.0,2.0,72.0,0.03355443200000001,,,,0,1.559897400002228,1.759176599996863,,,,1,,,,lauratest,60.0,
,,,0,46,-1,0,0.0969100130080564,0.03355443200000001,,,,,,,,,staircase,376.0224320999987,144.0,2.0,72.0,0.03355443200000001,,,,0,0.8374907000106759,1.006333099998301,,,,1,,,,lauratest,60.0,
,,,0,47,-1,0,0.0969100130080564,0.026843545600000008,,,,,,,,,staircase,380.74464610000723,144.0,2.0,72.0,0.026843545600000008,,,,6,1.4981833999918308,1.6481339000165462,,,,1,,,,lauratest,60.0,
,,,0,48,-1,0,0.0969100130080564,0.026843545600000008,,,,,,,,,staircase,386.6847808000166,132.0,2.0,72.0,0.026843545600000008,,,,0,0.8115944000019226,0.995618100016145,,,,1,,,,lauratest,60.0,
,,,0,49,-1,0,0.0969100130080564,0.021474836480000006,,,,,,,,,staircase,391.20141959999455,162.0,2.0,72.0,0.021474836480000006,,,,0,0.8034768000070471,1.0203832999977749,,,,1,,,,lauratest,60.0,
,,,0,50,-1,0,0.0969100130080564,0.021474836480000006,,,,,,,,,staircase,396.23777199999313,138.0,2.0,72.0,0.021474836480000006,,,,0,0.6022318000032101,0.7360319000144955,,,,1,,,,lauratest,60.0,
,,,0,51,-1,0,0.0969100130080564,0.017179869184000003,,,,,,,,,staircase,400.60791930000414,180.0,2.0,72.0,0.017179869184000003,,,,0,0.7171921999834012,0.8925407999777235,,,,0,,,,lauratest,60.0,
,,,0,52,-1,0,0.0969100130080564,0.021474836480000002,,,,,,,,,staircase,405.97870800000965,162.0,2.0,72.0,0.021474836480000002,,,,0,0.9210317000106443,1.1038540000154171,,,,1,,,,lauratest,60.0,
,,,0,53,-1,0,0.0969100130080564,0.021474836480000002,,,,,,,,,staircase,411.3186659000057,168.0,2.0,72.0,0.021474836480000002,,,,0,0.3683413999970071,0.5351319999899715,,,,1,,,,lauratest,60.0,
,,,0,54,-1,0,0.0969100130080564,0.017179869184000003,,,,,,,,,staircase,415.96999620000133,162.0,2.0,72.0,0.017179869184000003,,,,1,1.2930638999969233,1.4263883999956306,,,,1,,,,lauratest,60.0,
,,,0,55,-1,0,0.0969100130080564,0.017179869184000003,,,,,,,,,staircase,421.4103421999898,150.0,2.0,72.0,0.017179869184000003,,,,0,0.7357612999912817,0.9184572999947704,,,,1,,,,lauratest,60.0,
,,,0,56,-1,0,0.0969100130080564,0.013743895347200002,,,,,,,,,staircase,426.1449241999944,156.0,2.0,72.0,0.013743895347200002,,,,6,0.44976970000425354,0.5336501000274438,,,,1,,,,lauratest,60.0,
,,,0,57,-1,0,0.0969100130080564,0.013743895347200002,,,,,,,,,staircase,431.2361075000081,126.0,2.0,72.0,0.013743895347200002,,,,7,0.6375409000029322,0.7716809999838006,,,,1,,,,lauratest,60.0,
,,,0,58,-1,0,0.0969100130080564,0.010995116277760002,,,,,,,,,staircase,435.41858030000003,180.0,2.0,72.0,0.010995116277760002,,,,7,0.8383153000031598,0.9884030999965034,,,,0,,,,lauratest,60.0,
,,,0,59,-1,0,0.0969100130080564,0.013743895347200002,,,,,,,,,staircase,440.7215479000006,126.0,2.0,72.0,0.013743895347200002,,,,6,0.43795459999819286,0.5219570000190288,,,,1,,,,lauratest,60.0,
,,,0,60,-1,0,0.0969100130080564,0.013743895347200002,,,,,,,,,staircase,444.65871970000444,138.0,2.0,72.0,0.013743895347200002,,,,7,0.8610732999804895,0.9940375000005588,,,,0,,,,lauratest,60.0,
,,,0,61,-1,0,0.0969100130080564,0.017179869184000003,,,,,,,,,staircase,449.2700124999974,168.0,2.0,72.0,0.017179869184000003,,,,0,1.0666884999955073,1.233410399989225,,,,1,,,,lauratest,60.0,
,,,0,62,-1,0,0.0969100130080564,0.017179869184000003,,,,,,,,,staircase,455.1014288000006,174.0,2.0,72.0,0.017179869184000003,,,,7,2.822185199998785,2.956312499998603,,,,1,,,,lauratest,60.0,
,,,0,63,-1,0,0.0969100130080564,0.013743895347200002,,,,,,,,,staircase,462.28953820001334,126.0,2.0,72.0,0.013743895347200002,,,,7,0.919526500016218,1.1691637000185438,,,,0,,,,lauratest,60.0,
,,,0,64,-1,0,0.0969100130080564,0.017179869184000003,,,,,,,,,staircase,466.87489820001065,150.0,2.0,72.0,0.017179869184000003,,,,0,0.9650084000022616,1.0319467000081204,,,,1,,,,lauratest,60.0,
,,,0,65,-1,0,0.0969100130080564,0.017179869184000003,,,,,,,,,staircase,471.7211712000135,174.0,2.0,72.0,0.017179869184000003,,,,1,1.9039467000111472,2.0365677000081632,,,,1,,,,lauratest,60.0,
,,,0,66,-1,0,0.0969100130080564,0.013743895347200002,,,,,,,,,staircase,478.3202295000083,126.0,2.0,72.0,0.013743895347200002,,,,0,0.934154699993087,1.1518021000083536,,,,1,,,,lauratest,60.0,
,,,0,67,-1,0,0.0969100130080564,0.013743895347200002,,,,,,,,,staircase,482.88820139999734,150.0,2.0,72.0,0.013743895347200002,,,,7,1.610823499999242,1.7963007999933325,,,,0,,,,lauratest,60.0,
,,,0,68,-1,0,0.0969100130080564,0.017179869184000003,,,,,,,,,staircase,488.4961304999888,174.0,2.0,72.0,0.017179869184000003,,,,0,0.9527413000178058,1.1115264000254683,,,,1,,,,lauratest,60.0,
,,,0,69,-1,0,0.0969100130080564,0.017179869184000003,,,,,,,,,staircase,493.81999360001646,162.0,2.0,72.0,0.017179869184000003,,,,0,0.8822086000000127,1.0644383000035305,,,,1,,,,lauratest,60.0,
,,,0,-1,-1,0,,,materials/instructions\11_session_start.png,499.2965205000073,560.3684775000147,0,60.90346570001566,61.07023169999593,0.022651700011920184,61.08909580000909,,,,,,,,,,,,,,,,,,,,lauratest,60.0,
,,,0,-1,-1,0,,,,,,,,,,,,,,,,,,,,,,,,,,,0.020114942459904,,,lauratest,60.0,
-77,77,90,0,0,0,7,,,,,,,,,,,session,560.3970862000133,168.0,2.0,72.0,0.020114942459904,2,1.278506800008472,1.4449092999857385,6,1.1197925999877043,1.2036636999982875,1,1.966975999996066,2.116919099993538,,,51.0,51.0,lauratest,60.0,
-77,-77,90,0,1,1,15,,,,,,,,,,,session,571.4382490999997,156.0,2.0,72.0,0.020114942459904,3,0.8394050999777392,1.0719444999995176,6,1.087880499981111,1.2218106999935117,1,1.3023336000042036,1.469095100008417,,,54.0,60.0,lauratest,60.0,
-77,77,0,0,2,2,5,,,,,,,,,,,session,581.1465554999886,156.0,2.0,72.0,0.020114942459904,2,0.8104309999907855,0.9782394999929238,0,1.0537451999844052,1.2541613999928813,1,1.9170234000193886,2.067135999997845,,,57.0,48.0,lauratest,60.0,
77,-77,-45,0,3,3,8,,,,,,,,,,,session,591.8244380000106,180.0,2.0,72.0,0.020114942459904,5,1.3665449999971315,1.4833039000222925,7,0.8071557000221219,0.9895047000027262,0,1.0844861999794375,1.4682314999809023,,,57.0,48.0,lauratest,60.0,
77,-77,90,0,4,4,11,,,,,,,,,,,session,601.9617070000095,150.0,2.0,72.0,0.020114942459904,5,1.2455712999799289,1.3811475999827962,7,0.771622899977956,0.9218757999769878,0,0.45019089998095296,0.6492215999751352,,,48.0,54.0,lauratest,60.0,
77,77,0,0,5,5,1,,,,,,,,,,,session,611.15794189999,126.0,2.0,72.0,0.020114942459904,5,0.9518240999896079,1.0852205000119284,7,0.8221648999897297,0.9722224999859463,0,0.6867760000168346,0.9050115999998525,,,54.0,54.0,lauratest,60.0,
-77,-77,45,0,6,6,14,,,,,,,,,,,session,619.4769044000132,162.0,2.0,72.0,0.020114942459904,4,0.832840999995824,1.1845100999926217,0,0.6463947999873199,0.8463995999773033,0,0.27939530002186075,0.49533780000638217,,,57.0,69.0,lauratest,60.0,
-77,-77,-45,0,7,7,12,,,,,,,,,,,session,628.2717950000078,162.0,2.0,72.0,0.020114942459904,5,1.030678800016176,1.1629625000059605,7,1.8062184000154957,1.9398136000090744,0,1.6000792999984697,1.8003031999978703,,,51.0,72.0,lauratest,60.0,
-77,77,45,0,8,8,6,,,,,,,,,,,session,639.3917414000025,162.0,2.0,72.0,0.020114942459904,5,1.0161191999795847,1.1828541999857407,0,1.138187199976528,1.3716943000035826,0,0.8753894999972545,0.9586320999951568,,,63.0,72.0,lauratest,60.0,
-77,77,-45,0,9,9,4,,,,,,,,,,,session,649.3197709000087,138.0,2.0,72.0,0.020114942459904,2,2.1683707000047434,2.318879200000083,0,0.7332596000051126,0.9188613000151236,0,16.1841305999842,16.366993800009368,,,57.0,69.0,lauratest,60.0,
77,-77,45,0,10,10,10,,,,,,,,,,,session,674.9568689000153,162.0,2.0,72.0,0.020114942459904,4,0.9071615999855567,1.0738008999906015,7,3.3714646000007633,3.4868357999948785,1,4.1757861000078265,4.341826999996556,,,48.0,48.0,lauratest,60.0,
77,77,-45,0,11,11,0,,,,,,,,,,,session,689.6296976000012,156.0,2.0,72.0,0.020114942459904,5,0.7273217999900226,0.8410835000104271,1,2.6905290000140667,2.8733226000040304,1,1.3316535000049043,1.4984774000186007,,,69.0,63.0,lauratest,60.0,
77,-77,0,0,12,12,9,,,,,,,,,,,session,701.7566567999893,174.0,2.0,72.0,0.020114942459904,5,1.3025802999909502,1.4194482000020798,7,0.704416399996262,0.8219822999963071,0,0.3185500999970827,0.46963479998521507,,,48.0,51.0,lauratest,60.0,
77,77,45,0,13,13,2,,,,,,,,,,,session,710.4633309000055,168.0,2.0,72.0,0.020114942459904,5,0.8245898000022862,0.9581458999891765,7,0.5331480999884661,0.6830829000100493,0,0.5147063000185881,0.6498215000028722,,,51.0,63.0,lauratest,60.0,
-77,-77,0,0,14,14,13,,,,,,,,,,,session,719.1226715999946,138.0,2.0,72.0,0.020114942459904,5,0.8893430999887642,1.0375891999865416,7,0.41823750000912696,0.6184262000024319,0,0.385091400006786,0.6184721000026911,,,54.0,72.0,lauratest,60.0,
77,77,90,0,15,15,3,,,,,,,,,,,session,727.2397787999944,180.0,2.0,72.0,0.020114942459904,5,1.433509900001809,1.5835967999882996,7,0.3385200999910012,0.5397067999874707,0,0.5421477999771014,0.7249442999891471,,,57.0,54.0,lauratest,60.0,
77,77,90,1,0,16,3,,,,,,,,,,,session,736.39007210001,174.0,2.0,72.0,0.020114942459904,5,0.7861532999959309,0.9198823999904562,6,1.051295699988259,1.1677448999835178,1,0.5013146999990568,0.6836756999837235,,,48.0,72.0,lauratest,60.0,
-77,-77,0,1,1,17,13,,,,,,,,,,,session,745.9904773999879,144.0,2.0,72.0,0.020114942459904,3,0.8052741000137758,1.005771399999503,0,1.5063115000084508,1.6399093999934848,1,0.28719339999952354,0.4871016999823041,,,51.0,48.0,lauratest,60.0,
-77,-77,45,1,2,18,14,,,,,,,,,,,session,754.6122753999953,174.0,2.0,72.0,0.020114942459904,3,0.7127474000153597,0.9291373000014573,7,1.806523700011894,2.006464300007792,1,0.44414780000806786,0.5918457000225317,,,66.0,48.0,lauratest,60.0,
77,77,45,1,3,19,2,,,,,,,,,,,session,764.5710156999994,138.0,2.0,72.0,0.020114942459904,4,0.6855294999841135,1.0523698999895714,6,0.9888613999937661,1.1714332999836188,1,0.40344540000660345,0.5359210000024177,,,57.0,51.0,lauratest,60.0,
77,77,45,1,3,19,2,,,materials/instructions\12_break.png,772.9201901000051,781.4815406000125,0,8.381854200008092,8.559353699994972,0.023534199979621917,8.572034799988614,,,,,,,,,,,,,,,,,,,,lauratest,60.0,
-77,77,90,1,4,20,7,,,,,,,,,,,session,781.502504300006,156.0,2.0,72.0,0.020114942459904,2,0.713372199999867,0.864098499994725,6,0.8833530000119936,1.014392700017197,1,3.5030657000024803,3.619165800017072,,,66.0,72.0,lauratest,60.0,
77,-77,45,1,5,21,10,,,,,,,,,,,session,793.5754040000029,150.0,2.0,72.0,0.020114942459904,5,4.504312900011428,4.6212899000092875,7,0.4399107999925036,0.5950178999919444,0,0.4971470999880694,0.6325070000020787,,,66.0,48.0,lauratest,60.0,
77,-77,0,1,6,22,9,,,,,,,,,,,session,805.2920249000017,126.0,2.0,72.0,0.020114942459904,4,0.6872246999992058,0.8714971999870613,0,1.1184651000075974,1.301818000007188,1,1.5350727000040933,1.6851346000039484,,,54.0,60.0,lauratest,60.0,
77,77,0,1,7,23,1,,,,,,,,,,,session,814.6073978999921,180.0,2.0,72.0,0.020114942459904,5,1.2831744000141043,1.4007860000128858,7,0.3886904999963008,0.488821699982509,0,0.6363577000156511,0.8185118999972474,,,69.0,51.0,lauratest,60.0,
-77,-77,90,1,8,24,15,,,,,,,,,,,session,823.7474226999911,156.0,2.0,72.0,0.020114942459904,3,0.510715699987486,0.7272349999984726,6,0.7877087999950163,0.9381789999897592,0,0.5308982999995351,0.829586100007873,,,51.0,66.0,lauratest,60.0,
-77,-77,-45,1,9,25,12,,,,,,,,,,,session,832.754449,156.0,2.0,72.0,0.020114942459904,3,0.3733307000075001,0.5236218000063673,1,2.122453299991321,2.288237199973082,1,1.069423499982804,1.2527753999747802,,,54.0,48.0,lauratest,60.0,
77,-77,-45,1,10,26,8,,,,,,,,,,,session,842.5647742000001,156.0,2.0,72.0,0.020114942459904,4,0.32520689998636954,0.6029471999790985,1,1.098828499991214,1.2322976000141352,1,0.24944449999020435,0.385822799988091,,,57.0,54.0,lauratest,60.0,
-77,77,45,1,11,27,6,,,,,,,,,,,session,850.742432900006,174.0,2.0,72.0,0.020114942459904,2,1.3006344999885187,1.46626240000478,7,1.6419623999972828,1.7922042999998666,1,0.28788170000188984,0.40449529999750666,,,60.0,57.0,lauratest,60.0,
-77,77,0,1,12,28,5,,,,,,,,,,,session,860.7083941000164,168.0,2.0,72.0,0.020114942459904,2,0.4018340999900829,0.5363976999942679,0,0.7052733000018634,1.0375474999891594,1,1.5406661000160966,1.6789482999884058,,,57.0,51.0,lauratest,60.0,
77,77,-45,1,13,29,0,,,,,,,,,,,session,870.0247424000117,156.0,2.0,72.0,0.020114942459904,5,0.88577539997641,1.0021766999852844,1,1.2314235999947414,1.4009293999988586,1,0.34880070001236163,0.49923740001395345,,,48.0,51.0,lauratest,60.0,
77,-77,90,1,14,30,11,,,,,,,,,,,session,878.8393956999935,156.0,2.0,72.0,0.020114942459904,5,1.3373339000099804,1.4718999000033364,7,0.3230057000182569,0.5230511999980081,0,0.284348899993347,0.4856949000095483,,,54.0,54.0,lauratest,60.0,
-77,77,-45,1,15,31,4,,,,,,,,,,,session,887.1641063000134,138.0,2.0,72.0,0.020114942459904,5,1.1489719999954104,1.2320729999919422,7,0.2689104999881238,0.5386130999831948,0,0.6013053000206128,0.8347529000020586,,,54.0,48.0,lauratest,60.0,
77,-77,-45,2,0,32,8,,,,,,,,,,,session,895.2585676999879,180.0,2.0,72.0,0.020114942459904,5,0.9634576000098605,1.0969016999879386,7,0.4353308000136167,0.6019842000096105,0,0.011935999995330349,0.18743829999584705,,,51.0,69.0,lauratest,60.0,
-77,-77,0,2,1,33,13,,,,,,,,,,,session,903.6082424999913,144.0,2.0,72.0,0.020114942459904,3,0.4868197000178043,0.6538369000190869,0,0.9735711000103038,1.1905180999892764,1,0.3857136000005994,0.5348738000029698,,,66.0,57.0,lauratest,60.0,
77,77,90,2,2,34,3,,,,,,,,,,,session,911.8644471000007,180.0,2.0,72.0,0.020114942459904,4,0.7426483999879565,0.9452273999922909,0,0.4106518999906257,0.6444265999889467,0,0.5167662000167184,0.6168204999994487,,,69.0,57.0,lauratest,60.0,
-77,77,-45,2,3,35,4,,,,,,,,,,,session,921.1730756000034,126.0,2.0,72.0,0.020114942459904,4,1.015056200005347,1.1822642000042833,7,1.3245181000092998,1.5246722000010777,0,0.6852042999817058,0.871772599988617,,,57.0,48.0,lauratest,60.0,
-77,77,45,2,4,36,6,,,,,,,,,,,session,930.0491175999923,168.0,2.0,72.0,0.020114942459904,2,0.8025812999985646,0.9937826000095811,7,1.3151515999925323,1.4551729999948293,1,1.7666918000031728,1.9329714000050444,,,69.0,51.0,lauratest,60.0,
77,77,45,2,5,37,2,,,,,,,,,,,session,940.6881802999997,150.0,2.0,72.0,0.020114942459904,5,1.3020194999990053,1.4345403999905102,7,0.6408941999834497,0.7407621000020299,0,0.7862796999979764,0.9687255000171717,,,48.0,57.0,lauratest,60.0,
77,-77,45,2,6,38,10,,,,,,,,,,,session,949.526566000015,144.0,2.0,72.0,0.020114942459904,4,0.41997400001855567,0.6024673000210896,7,1.055277700012084,1.206417200010037,0,0.5718584000132978,0.7069377000152599,,,51.0,48.0,lauratest,60.0,
77,77,-45,2,7,39,0,,,,,,,,,,,session,957.5534610000032,144.0,2.0,72.0,0.020114942459904,4,0.6137200000230223,0.8786389000015333,0,0.45582450000802055,0.6259778999956325,1,2.670709900005022,2.853220599994529,,,51.0,48.0,lauratest,60.0,
77,77,-45,2,7,39,0,,,materials/instructions\12_break.png,967.9039957000059,997.2275992000068,0,29.154651799995918,29.321520400000736,0.02130110000143759,29.329117000015685,,,,,,,,,,,,,,,,,,,,lauratest,60.0,
-77,-77,90,2,8,40,15,,,,,,,,,,,session,997.2430102000071,162.0,2.0,72.0,0.020114942459904,3,0.9852314000017941,1.15636789999553,6,1.1451497999951243,1.278380500007188,1,0.36600790001102723,0.5170226000191178,,,63.0,63.0,lauratest,60.0,
77,77,0,2,9,41,1,,,,,,,,,,,session,1006.5902304000047,144.0,2.0,72.0,0.020114942459904,5,1.0295243999862578,1.1492632000008598,6,0.4726334000006318,0.5878821999940556,0,0.28534019997459836,0.4521426999999676,,,72.0,54.0,lauratest,60.0,
-77,77,0,2,10,42,5,,,,,,,,,,,session,1014.7255147999967,174.0,2.0,72.0,0.020114942459904,2,1.052867700025672,1.2195129000174347,0,0.8209942000103183,1.021130599983735,1,1.3961275000183377,1.5462147000071127,,,54.0,57.0,lauratest,60.0,
-77,77,90,2,11,43,7,,,,,,,,,,,session,1024.7082823000092,150.0,2.0,72.0,0.020114942459904,2,0.9152822999749333,1.0486951999773737,6,0.799554099998204,0.9668248000089079,1,1.4840001999982633,1.6348006000043824,,,66.0,60.0,lauratest,60.0,
-77,-77,-45,2,12,44,12,,,,,,,,,,,session,1034.6255196999991,138.0,2.0,72.0,0.020114942459904,3,1.1253852000227198,1.2754360000253655,1,1.1537572999950498,1.288389900000766,0,0.30000739998649806,0.5175204999977723,,,48.0,51.0,lauratest,60.0,
-77,-77,45,2,13,45,14,,,,,,,,,,,session,1043.0984582999954,144.0,2.0,72.0,0.020114942459904,4,0.6780356999952346,0.9242856999917421,7,0.6508024000213481,0.7663830000092275,0,0.46397939999587834,0.6152771000051871,,,66.0,69.0,lauratest,60.0,
77,-77,90,2,14,46,11,,,,,,,,,,,session,1052.0738407000026,174.0,2.0,72.0,0.020114942459904,3,0.9843785999983083,1.2168570999929216,1,0.9063184999977238,1.039729999989504,0,0.34994809998897836,0.48232360000838526,,,48.0,54.0,lauratest,60.0,
77,-77,0,2,15,47,9,,,,,,,,,,,session,1060.8594572000147,180.0,2.0,72.0,0.020114942459904,2,0.8544852999912109,0.9864233999978751,0,0.5253790999995545,0.6750946000101976,0,0.29569569998420775,0.4477007999958005,,,60.0,51.0,lauratest,60.0,
77,77,-45,3,0,48,0,,,,,,,,,,,session,1069.2882793000026,150.0,2.0,72.0,0.020114942459904,5,1.2355638000008184,1.3201822999981232,1,1.4221583000035025,1.5388153000094462,1,0.5359103999799117,0.7194744999869727,,,54.0,60.0,lauratest,60.0,
-77,77,45,3,1,49,6,,,,,,,,,,,session,1078.8408439999912,168.0,2.0,72.0,0.020114942459904,4,0.5122866999881808,0.8124463999993168,7,0.5850684000179172,0.7343784999975469,1,1.3350723999901675,1.5019766999757849,,,72.0,57.0,lauratest,60.0,
-77,-77,90,3,2,50,15,,,,,,,,,,,session,1088.2985351000098,174.0,2.0,72.0,0.020114942459904,3,0.40966519998619333,0.5397389999998268,6,1.9051789999939501,2.039327399979811,1,0.8697452000051271,1.021922399988398,,,72.0,57.0,lauratest,60.0,
-77,77,90,3,3,51,7,,,,,,,,,,,session,1098.9436950999952,150.0,2.0,72.0,0.020114942459904,5,1.7044000999885611,1.8211337999964599,7,0.4384385999874212,0.6049977999937255,0,0.25352589998510666,0.45250949999899603,,,72.0,48.0,lauratest,60.0,
-77,-77,-45,3,4,52,12,,,,,,,,,,,session,1107.7646478000097,168.0,2.0,72.0,0.020114942459904,3,0.7034464000025764,0.8534311999974307,0,1.0370891999918967,1.340764599997783,0,0.5494309000205249,0.813134900003206,,,63.0,51.0,lauratest,60.0,
77,-77,0,3,5,53,9,,,,,,,,,,,session,1117.0569777000055,138.0,2.0,72.0,0.020114942459904,5,1.7016340999980457,1.7674005999870133,7,0.8373495999840088,0.9373628000030294,0,0.5050595999928191,0.7550467000110075,,,66.0,48.0,lauratest,60.0,
77,77,90,3,6,54,3,,,,,,,,,,,session,1126.1604124000005,150.0,2.0,72.0,0.020114942459904,5,0.6510321999958251,0.7672662000113633,6,0.6278615000192076,0.7605845000070985,0,0.6057341000123415,0.8391972000245005,,,63.0,66.0,lauratest,60.0,
77,-77,-45,3,7,55,8,,,,,,,,,,,session,1134.6369940000004,150.0,2.0,72.0,0.020114942459904,4,0.50079600000754,0.7000273000157904,1,1.6058928999991622,1.7393386000185274,0,0.3510122000006959,0.6011697000067215,,,48.0,72.0,lauratest,60.0,
-77,-77,45,3,8,56,14,,,,,,,,,,,session,1143.8952628000116,144.0,2.0,72.0,0.020114942459904,3,0.3378284999926109,0.48871750000398606,7,0.7506005000032019,0.8515881999919657,1,4.376679400011199,4.801560000021709,,,66.0,51.0,lauratest,60.0,
77,-77,90,3,9,57,11,,,,,,,,,,,session,1155.8265187999932,168.0,2.0,72.0,0.020114942459904,4,0.34807639999780804,0.39806969999335706,6,0.787217499979306,0.9205128999892622,1,1.8887244000216015,2.0713212999980897,,,66.0,72.0,lauratest,60.0,
-77,-77,0,3,10,58,13,,,,,,,,,,,session,1166.3259924000013,132.0,2.0,72.0,0.020114942459904,3,0.4132985999749508,0.5642830999859143,0,0.5913319999817759,0.7747500999830663,1,0.49801350000780076,0.6480571000138298,,,57.0,72.0,lauratest,60.0,
77,77,45,3,11,59,2,,,,,,,,,,,session,1174.1136386000144,144.0,2.0,72.0,0.020114942459904,5,1.1281546000100207,1.1971481000073254,7,1.1007550999929663,1.2342133999918588,1,1.6330884999770205,1.7858151999826077,,,60.0,69.0,lauratest,60.0,
77,77,45,3,11,59,2,,,materials/instructions\12_break.png,1184.3467189999938,1227.1243944000162,0,42.607239399978425,42.775678699981654,0.012748800014378503,42.78150570002617,,,,,,,,,,,,,,,,,,,,lauratest,60.0,
77,-77,45,3,12,60,10,,,,,,,,,,,session,1227.138428700011,150.0,2.0,72.0,0.020114942459904,5,1.1427237000025343,1.2260406000132207,7,0.6780671000014991,0.8115245000226423,0,0.3356210000056308,0.5024183999921661,,,51.0,48.0,lauratest,60.0,
-77,77,0,3,13,61,5,,,,,,,,,,,session,1235.276497599989,162.0,2.0,72.0,0.020114942459904,5,0.975551000010455,1.0884149000048637,7,0.3685793000040576,0.5018501000013202,0,0.3346744000155013,0.5017600000137463,,,48.0,63.0,lauratest,60.0,
77,77,0,3,14,62,1,,,,,,,,,,,session,1243.3497586000012,132.0,2.0,72.0,0.020114942459904,5,0.7656862000003457,0.8795502999855671,0,2.7521550999954343,2.934588199976133,1,0.6344882000121288,0.8345850000041537,,,51.0,57.0,lauratest,60.0,
-77,77,-45,3,15,63,4,,,,,,,,,,,session,1254.0586784000043,162.0,2.0,72.0,0.020114942459904,5,0.8865146999887656,1.003241700003855,7,1.3411046000255737,1.476201100012986,0,0.5533403000154067,0.7867728999990504,,,69.0,54.0,lauratest,60.0,
77,77,45,4,0,64,2,,,,,,,,,,,session,1263.5151232999924,180.0,2.0,72.0,0.020114942459904,4,0.9251523000129964,1.0788199999951757,7,0.5518085999938194,0.6520408999931533,0,0.4321445999958087,0.5995366999995895,,,60.0,57.0,lauratest,60.0,
77,77,0,4,1,65,1,,,,,,,,,,,session,1272.8743730999995,126.0,2.0,72.0,0.020114942459904,4,0.8283795999886934,0.9783940000052098,7,0.4698850999993738,0.6036360000143759,0,0.6196357999870088,0.8017441999982111,,,51.0,69.0,lauratest,60.0,
77,-77,90,4,2,66,11,,,,,,,,,,,session,1280.7945382999897,174.0,2.0,72.0,0.020114942459904,4,0.35452880000229925,0.5359558000054676,6,0.5182468999992125,0.6361437999876216,0,0.2640610999951605,0.49281289998907596,,,63.0,60.0,lauratest,60.0,
-77,77,90,4,3,67,7,,,,,,,,,,,session,1288.8562500000116,162.0,2.0,72.0,0.020114942459904,2,0.34623009999631904,0.49467690000892617,6,0.7533964999893215,0.8865553999785334,1,0.4189839000173379,0.5703142000129446,,,60.0,63.0,lauratest,60.0,
-77,77,45,4,4,68,6,,,,,,,,,,,session,1297.511038800003,150.0,2.0,72.0,0.020114942459904,2,0.960064400016563,1.124586799996905,7,0.6749563000048511,0.7917425000050571,1,2.3049392999964766,2.4042690999922343,,,51.0,57.0,lauratest,60.0,
-77,-77,45,4,5,69,14,,,,,,,,,,,session,1307.5652927999909,132.0,2.0,72.0,0.020114942459904,3,0.40331090000108816,0.5363511000177823,7,1.6855819999764208,1.853125599998748,1,1.215627300000051,1.382306299987249,,,57.0,48.0,lauratest,60.0,
-77,77,-45,4,6,70,4,,,,,,,,,,,session,1316.9743275000073,174.0,2.0,72.0,0.020114942459904,4,0.4702601000026334,0.6838131999829784,7,0.5395666999975219,0.689342099998612,0,0.27939900002093054,0.44597369999974035,,,63.0,48.0,lauratest,60.0,
77,77,-45,4,7,71,0,,,,,,,,,,,session,1325.0118984,162.0,2.0,72.0,0.020114942459904,4,0.7364776999747846,0.9380956999957561,7,0.39055739998002537,0.5885825000004843,0,0.3813561999995727,0.5147118000022601,,,63.0,69.0,lauratest,60.0,
-77,-77,90,4,8,72,15,,,,,,,,,,,session,1333.4104927000008,168.0,2.0,72.0,0.020114942459904,3,0.26236929997685365,0.29304659998160787,6,0.4744403000222519,0.6066617000033148,1,0.08236180001404136,0.2163023000175599,,,60.0,60.0,lauratest,60.0,
77,-77,0,4,9,73,9,,,,,,,,,,,session,1341.1918194000027,126.0,2.0,72.0,0.020114942459904,4,0.42320369998924434,0.6736448000010569,0,0.8421262000047136,1.0445238999964204,0,0.011021000012988225,0.10027090000221506,,,60.0,54.0,lauratest,60.0,
77,-77,45,4,10,74,10,,,,,,,,,,,session,1348.445206400007,168.0,2.0,72.0,0.020114942459904,4,0.2863528000016231,0.5188177000090946,7,0.6182166999788024,0.7964890000002924,1,3.7141160999890417,3.8800419000035618,,,69.0,69.0,lauratest,60.0,
-77,-77,0,4,11,75,13,,,,,,,,,,,session,1360.2068666999985,180.0,2.0,72.0,0.020114942459904,4,0.48325829999521375,0.7334247999824584,7,0.34115799999563023,0.49125520000234246,0,0.43514849999337457,0.6178661999874748,,,48.0,60.0,lauratest,60.0,
77,-77,-45,4,12,76,8,,,,,,,,,,,session,1368.2948895000154,150.0,2.0,72.0,0.020114942459904,4,0.28009499999461696,0.4135840999952052,1,0.784203899995191,0.9852111999935005,1,0.26854270001058467,0.4671057999948971,,,54.0,60.0,lauratest,60.0,
-77,-77,-45,4,13,77,12,,,,,,,,,,,session,1376.0174097999989,156.0,2.0,72.0,0.020114942459904,3,0.5301059999910649,0.6503366999968421,1,1.4707678999984637,1.6371463000250515,1,0.3082767000014428,0.40473609999753535,,,54.0,60.0,lauratest,60.0,
77,77,90,4,14,78,3,,,,,,,,,,,session,1385.2417661999934,150.0,2.0,72.0,0.020114942459904,5,0.7547093000030145,0.885943800007226,6,0.43640610002330504,0.5708300000114832,1,0.6831582000013441,0.8170357999915723,,,48.0,72.0,lauratest,60.0,
-77,77,0,4,15,79,5,,,,,,,,,,,session,1393.4819513999973,156.0,2.0,72.0,0.020114942459904,2,0.7038446000078693,0.9232188000169117,0,0.9983579000108875,1.1645498000143562,0,0.3696392000128981,0.5809253999905195,,,72.0,72.0,lauratest,60.0,
-77,77,0,4,15,79,5,,,materials/instructions\12_break.png,1402.6591534999898,1420.9168621000135,0,18.115091599989682,18.255704799987143,0.018022700009169057,18.27006850001635,,,,,,,,,,,,,,,,,,,,lauratest,60.0,
-77,-77,90,5,0,80,15,,,,,,,,,,,session,1420.9394331999938,126.0,2.0,72.0,0.020114942459904,3,0.6406578999885824,0.8743748999841046,6,0.4024314999987837,0.5024119000008795,1,0.23118539998540655,0.38015439998707734,,,57.0,51.0,lauratest,60.0,
-77,77,-45,5,1,81,4,,,,,,,,,,,session,1428.5242215000035,150.0,2.0,72.0,0.020114942459904,2,0.3178710000065621,0.4513677000068128,1,1.1203709999972489,1.3371568000002299,1,0.45543920001364313,0.6388743000279646,,,54.0,66.0,lauratest,60.0,
77,77,45,5,2,82,2,,,,,,,,,,,session,1436.8982125000039,180.0,2.0,72.0,0.020114942459904,5,1.6866336000093725,1.803352699993411,7,0.011308099987218156,0.19824950001202524,0,0.011037799995392561,0.01296100000035949,,,66.0,72.0,lauratest,60.0,
-77,77,0,5,3,83,5,,,,,,,,,,,session,1445.6759897000156,174.0,2.0,72.0,0.020114942459904,2,0.8185380999930203,0.9698678999848198,0,1.3080298000131734,1.5728416000201833,1,1.34977020000224,1.5011646999919321,,,63.0,69.0,lauratest,60.0,
-77,-77,-45,5,4,84,12,,,,,,,,,,,session,1456.2789438999898,180.0,2.0,72.0,0.020114942459904,3,0.2973495000042021,0.49970070002018474,1,2.1839246000163257,2.350780600012513,1,0.37839030000031926,0.5131419000099413,,,69.0,54.0,lauratest,60.0,
-77,-77,45,5,5,85,14,,,,,,,,,,,session,1466.1582555999921,126.0,2.0,72.0,0.020114942459904,3,0.265739599999506,0.43232870000065304,7,0.6527569000027142,0.8026510999770835,1,0.48171270001330413,0.662601399992127,,,54.0,72.0,lauratest,60.0,
77,77,90,5,6,86,3,,,,,,,,,,,session,1474.0763571000134,150.0,2.0,72.0,0.020114942459904,5,0.7179499000194483,0.8013230000215117,6,1.005191099975491,1.122530899971025,1,4.4076551999896765,4.591065599990543,,,51.0,57.0,lauratest,60.0,
77,77,-45,5,7,87,0,,,,,,,,,,,session,1486.3349911000114,180.0,2.0,72.0,0.020114942459904,5,0.29847340000560507,0.46502249999321066,1,2.6726161999977194,2.858108899992658,1,0.3012616000196431,0.48542430001543835,,,72.0,72.0,lauratest,60.0,
77,77,0,5,8,88,1,,,,,,,,,,,session,1497.6614518999995,162.0,2.0,72.0,0.020114942459904,5,0.3742772999976296,0.5077830999798607,0,0.738167000003159,0.9559859000146389,1,0.5856089000008069,0.787015900015831,,,51.0,51.0,lauratest,60.0,
-77,-77,0,5,9,89,13,,,,,,,,,,,session,1505.750371800008,156.0,2.0,72.0,0.020114942459904,3,0.28598519999650307,0.46420849999412894,0,0.7598014999821316,0.9812993000086863,1,0.25364800001261756,0.36779059999389574,,,51.0,48.0,lauratest,60.0,
-77,77,90,5,10,90,7,,,,,,,,,,,session,1513.3259674000146,144.0,2.0,72.0,0.020114942459904,2,0.8505024999903981,0.9682339999999385,6,0.8176141000003554,0.9854704000172205,1,0.2878916999907233,0.4045369999948889,,,63.0,51.0,lauratest,60.0,
77,-77,90,5,11,91,11,,,,,,,,,,,session,1521.4439574000135,162.0,2.0,72.0,0.020114942459904,3,0.8733218999987002,0.9904055999941193,7,0.5437077000096906,0.6438259000133257,0,0.3878277999756392,0.5363239999860525,,,54.0,63.0,lauratest,60.0,
-77,77,45,5,12,92,6,,,,,,,,,,,session,1529.7008952999895,144.0,2.0,72.0,0.020114942459904,3,0.7097366999951191,0.864009899989469,7,0.4229795999999624,0.5732311999890953,0,0.3709812000161037,0.5712742000177968,,,51.0,63.0,lauratest,60.0,
77,-77,0,5,13,93,9,,,,,,,,,,,session,1537.9923029000056,180.0,2.0,72.0,0.020114942459904,4,0.2772527000051923,0.4430542000045534,0,0.6022586000035517,0.8528156999964267,1,0.2848414999898523,0.402169299981324,,,57.0,60.0,lauratest,60.0,
77,-77,45,5,14,94,10,,,,,,,,,,,session,1546.0985261999886,138.0,2.0,72.0,0.020114942459904,4,0.3029722000064794,0.6194781000085641,7,1.5706692000094336,1.7718697999953292,1,0.2942781999881845,0.47155609997571446,,,51.0,60.0,lauratest,60.0,
77,-77,-45,5,15,95,8,,,,,,,,,,,session,1554.5726458000136,168.0,2.0,72.0,0.020114942459904,4,0.2828389000205789,0.41610930001479574,1,0.9049314000003505,1.072367699991446,1,1.1163775000022724,1.2989250000100583,,,57.0,72.0,lauratest,60.0,
77,-77,0,6,0,96,9,,,,,,,,,,,session,1564.0791461000044,174.0,2.0,72.0,0.020114942459904,4,0.2871785000024829,0.4548938000225462,0,0.5183278999757022,0.70218069999828,1,0.48611389999859966,0.6528501999855507,,,51.0,63.0,lauratest,60.0,
-77,77,0,6,1,97,5,,,,,,,,,,,session,1572.1324191000022,156.0,2.0,72.0,0.020114942459904,2,1.07805909999297,1.1827546999847982,1,0.2945066000102088,0.4486291000212077,0,0.01199649999034591,0.013950399996247143,,,51.0,48.0,lauratest,60.0,
-77,77,90,6,2,98,7,,,,,,,,,,,session,1579.6711891999876,132.0,2.0,72.0,0.020114942459904,2,0.11257250001654029,0.24710780000896193,6,0.35430400000768714,0.45428169998922385,1,1.8339954000257421,2.0166530999995302,,,54.0,63.0,lauratest,60.0,
77,77,90,6,3,99,3,,,,,,,,,,,session,1587.9951461000019,144.0,2.0,72.0,0.020114942459904,5,0.5902936999918893,0.7221672000014223,6,3.0042647999944165,3.1565686999820173,0,0.01089559998945333,0.012692599993897602,,,66.0,63.0,lauratest,60.0,
77,77,90,6,3,99,3,,,materials/instructions\12_break.png,1597.8758553999942,1646.438802699995,0,48.380561099998886,48.5612237000023,0.012154900003224611,48.57182860001922,,,,,,,,,,,,,,,,,,,,lauratest,60.0,
-77,-77,0,6,4,100,13,,,,,,,,,,,session,1646.4576410000154,126.0,2.0,72.0,0.020114942459904,3,0.7459200999874156,0.8962919999903534,0,1.3546565999859013,1.4883354000048712,1,0.42490579999866895,0.5747379999957047,,,48.0,72.0,lauratest,60.0,
-77,77,45,6,5,101,6,,,,,,,,,,,session,1654.9619689999963,132.0,2.0,72.0,0.020114942459904,2,0.9206296000047587,1.054608799982816,7,0.5561582999944221,0.7231164999830071,1,0.7856254999933299,0.9537800999823958,,,57.0,63.0,lauratest,60.0,
-77,77,-45,6,6,102,4,,,,,,,,,,,session,1663.3388196000014,144.0,2.0,72.0,0.020114942459904,2,0.6797449000005145,0.7950569000095129,1,0.903046000021277,1.103658700012602,1,0.5507669000071473,0.7822505000222009,,,57.0,57.0,lauratest,60.0,
-77,-77,90,6,7,103,15,,,,,,,,,,,session,1672.4095507999882,162.0,2.0,72.0,0.020114942459904,3,0.31741640000836924,0.5008299000037368,6,0.44062720000511035,0.5740604000166059,1,0.36853129998780787,0.5368108999973629,,,51.0,69.0,lauratest,60.0,
77,-77,45,6,8,104,10,,,,,,,,,,,session,1680.1662992000056,180.0,2.0,72.0,0.020114942459904,4,0.38273370001115836,0.5321031000057701,7,0.6976383000146598,0.9412721999979112,1,0.011005000007571653,0.1609152000164613,,,69.0,69.0,lauratest,60.0,
77,77,0,6,9,105,1,,,,,,,,,,,session,1688.5759365000122,132.0,2.0,72.0,0.020114942459904,5,0.2681944000069052,0.3690422000072431,0,0.6005978000175674,0.8012637000065297,1,0.5202497999998741,0.6847196000162512,,,69.0,54.0,lauratest,60.0,
-77,-77,-45,6,10,106,12,,,,,,,,,,,session,1696.1448010999884,132.0,2.0,72.0,0.020114942459904,3,0.15510810000705533,0.3552256000111811,1,0.7926455000124406,0.9262296000088099,1,0.011110799998277798,0.0130217999976594,,,60.0,60.0,lauratest,60.0,
77,77,-45,6,11,107,0,,,,,,,,,,,session,1703.0786166999897,156.0,2.0,72.0,0.020114942459904,3,0.6357948000077158,0.802373600017745,7,0.41146989999106154,0.55046470000525,0,1.3522337000176776,1.5329257000121288,,,51.0,63.0,lauratest,60.0,
77,-77,-45,6,12,108,8,,,,,,,,,,,session,1711.9269488000136,150.0,2.0,72.0,0.020114942459904,4,0.3558404999785125,0.46741779998410493,7,2.5701504000171553,2.7346512000076473,1,0.011108800012152642,0.013048299995716661,,,54.0,72.0,lauratest,60.0,
-77,-77,45,6,13,109,14,,,,,,,,,,,session,1721.2013989000116,132.0,2.0,72.0,0.020114942459904,3,0.4203845000010915,0.5552118999767117,7,0.45872580001014285,0.5588673000165727,1,0.502377400000114,0.6828282999922521,,,66.0,66.0,lauratest,60.0,
77,-77,90,6,14,110,11,,,,,,,,,,,session,1728.8356353999989,168.0,2.0,72.0,0.020114942459904,4,1.0929602999822237,1.2068868999776896,6,0.28992490001837723,0.4555761000083294,0,0.01098160000401549,0.059992800001055,,,60.0,69.0,lauratest,60.0,
77,77,45,6,15,111,2,,,,,,,,,,,session,1737.509276900004,174.0,2.0,72.0,0.020114942459904,5,1.233404900005553,1.3667361000261735,7,1.5453458000265528,1.6763843000226188,1,0.2712306999892462,0.4379097999772057,,,69.0,63.0,lauratest,60.0,
-77,77,90,7,0,112,7,,,,,,,,,,,session,1747.5329450000136,138.0,2.0,72.0,0.020114942459904,5,1.0054928999743424,1.1706008999899495,7,0.5819138000078965,0.7610618000035174,0,0.01103349999175407,0.4151949000079185,,,69.0,54.0,lauratest,60.0,
77,77,45,7,1,113,2,,,,,,,,,,,session,1755.7144015000085,162.0,2.0,72.0,0.020114942459904,5,0.4839930000016466,0.6728182000224479,7,0.7165953999792691,0.9001068999932613,1,1.1545462000067346,1.354713200009428,,,60.0,54.0,lauratest,60.0,
77,77,0,7,2,114,1,,,,,,,,,,,session,1764.6952187000134,138.0,2.0,72.0,0.020114942459904,5,0.7694532999885269,0.9173802000004798,0,1.4812691000115592,1.6644371000002138,1,0.010989200003677979,0.1648888000054285,,,63.0,54.0,lauratest,60.0,
-77,77,-45,7,3,115,4,,,,,,,,,,,session,1773.1369497000123,138.0,2.0,72.0,0.020114942459904,2,0.5073090000078082,0.6397470000083558,1,1.0380119000037666,1.2713892000028864,1,0.1288291999953799,0.3640789999917615,,,60.0,63.0,lauratest,60.0,
77,-77,-45,7,4,116,8,,,,,,,,,,,session,1781.8292912000034,174.0,2.0,72.0,0.020114942459904,4,0.28247899998677894,0.44904740000492893,1,1.3052915000007488,1.5236227000132203,1,3.921337300009327,4.087829900003271,,,72.0,57.0,lauratest,60.0,
-77,77,45,7,5,117,6,,,,,,,,,,,session,1794.3859984000155,144.0,2.0,72.0,0.020114942459904,2,0.7587401000200771,0.9088208000175655,7,3.372462799976347,3.555530199984787,0,0.3212106999999378,0.5548441999999341,,,60.0,63.0,lauratest,60.0,
-77,-77,90,7,6,118,15,,,,,,,,,,,session,1805.780708300008,168.0,2.0,72.0,0.020114942459904,5,0.9731903999927454,1.0710897999815643,1,1.0109365000098478,1.1436086000176147,0,0.011142100003780797,0.013176500011468306,,,48.0,66.0,lauratest,60.0,
-77,-77,0,7,7,119,13,,,,,,,,,,,session,1814.1434903999907,156.0,2.0,72.0,0.020114942459904,3,0.2858735999907367,0.5023834999883547,0,0.6985183999931905,0.8986832000082359,1,11.187868899985915,11.354155799985165,,,51.0,51.0,lauratest,60.0,
-77,-77,0,7,7,119,13,,,materials/instructions\12_break.png,1832.7033130000054,1841.0758872000151,0,8.147602200013353,8.371071200002916,0.0127212000079453,8.389537300012307,,,,,,,,,,,,,,,,,,,,lauratest,60.0,
77,77,90,7,8,120,3,,,,,,,,,,,session,1841.1029698000057,144.0,2.0,72.0,0.020114942459904,5,0.35704939998686314,0.5069589999911841,6,0.8127755000023171,0.9639052999846172,1,0.6824408999818843,0.8491381999920122,,,48.0,48.0,lauratest,60.0,
77,-77,90,7,9,121,11,,,,,,,,,,,session,1849.3603472000104,138.0,2.0,72.0,0.020114942459904,4,0.29959219999727793,0.41621199998189695,6,0.45566640002653,0.5890354000148363,1,0.6212247000075877,0.8057463000004645,,,54.0,63.0,lauratest,60.0,
77,77,-45,7,10,122,0,,,,,,,,,,,session,1856.8658656000043,132.0,2.0,72.0,0.020114942459904,5,0.6849907000141684,0.8349382000160404,1,1.2004136000177823,1.3787647999997716,1,0.93631039999309,1.1158721999963745,,,54.0,63.0,lauratest,60.0,
77,-77,0,7,11,123,9,,,,,,,,,,,session,1865.8605975999963,174.0,2.0,72.0,0.020114942459904,4,0.3213181000028271,0.4715240000223275,0,1.1209388000133913,1.271035900019342,1,0.4666428999917116,0.5832958999963012,,,54.0,69.0,lauratest,60.0,
77,-77,45,7,12,124,10,,,,,,,,,,,session,1874.5955536999973,132.0,2.0,72.0,0.020114942459904,5,1.7398179000010714,1.8557655999902636,7,0.2537118000036571,0.43720839999150485,0,0.5620293999963906,0.7299283999891486,,,51.0,48.0,lauratest,60.0,
-77,-77,45,7,13,125,14,,,,,,,,,,,session,1882.9036151999899,180.0,2.0,72.0,0.020114942459904,3,0.3116740999976173,0.53197569999611,7,0.6184256999986246,0.7862893000128679,1,1.6384053000074346,1.787666399992304,,,48.0,57.0,lauratest,60.0,
-77,-77,-45,7,14,126,12,,,,,,,,,,,session,1892.913430399989,132.0,2.0,72.0,0.020114942459904,3,0.4578730000066571,0.6578523000061978,1,1.5931901000149082,1.7931312000146136,1,0.15164430000004359,0.31846690000384115,,,51.0,51.0,lauratest,60.0,
-77,77,0,7,15,127,5,,,,,,,,,,,session,1901.017422200006,132.0,2.0,72.0,0.020114942459904,2,0.2399091999977827,0.3711034000152722,1,0.6200627000071108,0.8200133999926038,1,0.9528391000058036,1.0426192000159062,,,66.0,63.0,lauratest,60.0,
-77,-77,90,8,0,128,15,,,,,,,,,,,session,1909.046797899995,162.0,2.0,72.0,0.020114942459904,3,0.43814020001445897,0.6047843999986071,6,1.0070357999939006,1.1060167000105139,1,0.29987739998614416,0.39984329999424517,,,69.0,66.0,lauratest,60.0,
-77,-77,-45,8,1,129,12,,,,,,,,,,,session,1917.5954836000165,150.0,2.0,72.0,0.020114942459904,3,0.011225399997783825,0.1828912000055425,1,2.424378700001398,2.5917073999880813,0,0.6160863999975845,0.7664771999989171,,,60.0,66.0,lauratest,60.0,
77,-77,90,8,2,130,11,,,,,,,,,,,session,1927.1867281000013,162.0,2.0,72.0,0.020114942459904,4,0.30706419999478385,0.46086839999770746,6,0.9023490000108723,1.019354399992153,1,0.35521670000161976,0.47171199999866076,,,48.0,54.0,lauratest,60.0,
-77,-77,45,8,3,131,14,,,,,,,,,,,session,1935.612026799994,162.0,2.0,72.0,0.020114942459904,3,0.011001199978636578,0.28406839998206124,7,0.4936949000111781,0.6607010000152513,1,2.036057699995581,2.169498499977635,,,72.0,57.0,lauratest,60.0,
77,77,90,8,4,132,3,,,,,,,,,,,session,1945.0163257000095,144.0,2.0,72.0,0.020114942459904,5,0.8560803000000305,0.9561198000155855,6,0.40213740000035614,0.5022273999929894,0,0.011659600015264004,0.06957180000608787,,,57.0,69.0,lauratest,60.0,
77,77,45,8,5,133,2,,,,,,,,,,,session,1952.4773809000035,180.0,2.0,72.0,0.020114942459904,5,0.7535381999914534,0.8869446000026073,7,1.2004278999811504,1.34840119999717,1,1.6667091000126675,1.8002915999968536,,,51.0,60.0,lauratest,60.0,
77,77,-45,8,6,134,0,,,,,,,,,,,session,1963.0803752999927,150.0,2.0,72.0,0.020114942459904,5,2.123338400007924,2.340292300010333,1,1.3682200000039302,1.501698000007309,1,0.8871069000160787,1.0519341000181157,,,60.0,51.0,lauratest,60.0,
-77,-77,0,8,7,135,13,,,,,,,,,,,session,1973.7541935000045,144.0,2.0,72.0,0.020114942459904,3,0.6318036000011489,0.7448293000052217,0,1.469054800021695,1.6481845999951474,1,0.273006199975498,0.40815679999650456,,,57.0,60.0,lauratest,60.0,
77,77,0,8,8,136,1,,,,,,,,,,,session,1982.8505556000164,144.0,2.0,72.0,0.020114942459904,5,0.7233761000097729,0.8235117000003811,0,0.8055155000183731,0.9560411999991629,1,0.47066979997907765,0.5873910999798682,,,60.0,60.0,lauratest,60.0,
-77,77,45,8,9,137,6,,,,,,,,,,,session,1991.0701861999987,180.0,2.0,72.0,0.020114942459904,3,1.1594139999942854,1.2811664999753702,1,2.6520700000110082,2.7191457000153605,0,0.011031600006390363,0.012929299991810694,,,63.0,57.0,lauratest,60.0,
-77,77,90,8,10,138,7,,,,,,,,,,,session,2001.5490234000026,126.0,2.0,72.0,0.020114942459904,2,0.5680913999967743,0.6348500000021886,6,0.48645520000718534,0.5540671999915503,1,1.0194511000008788,1.0861164999951143,,,72.0,60.0,lauratest,60.0,
-77,77,0,8,11,139,5,,,,,,,,,,,session,2009.5650935000158,180.0,2.0,72.0,0.020114942459904,2,0.840387499978533,0.8904020999907516,0,0.8198083000024781,0.9371189000084996,1,0.26275539997732267,0.40639349998673424,,,57.0,60.0,lauratest,60.0,
-77,77,0,8,11,139,5,,,materials/instructions\12_break.png,2018.2207520999946,2032.3305970999936,0,14.040984799998114,14.107687000010628,0.019767999998293817,14.115204500005348,,,,,,,,,,,,,,,,,,,,lauratest,60.0,
77,-77,-45,8,12,140,8,,,,,,,,,,,session,2032.3455948999908,126.0,2.0,72.0,0.020114942459904,4,0.5960727999918163,0.662860600015847,7,1.072478099988075,1.157746999990195,0,0.43055450002430007,0.6084498999989592,,,66.0,66.0,lauratest,60.0,
77,-77,0,8,13,141,9,,,,,,,,,,,session,2040.5265206999902,144.0,2.0,72.0,0.020114942459904,4,0.7289162999950349,0.7958550000039395,0,2.5096499000210315,2.642496000014944,1,0.24820339999860153,0.3315800999989733,,,51.0,51.0,lauratest,60.0,
77,-77,45,8,14,142,10,,,,,,,,,,,session,2050.146062899992,168.0,2.0,72.0,0.020114942459904,4,0.7731894000025932,0.9214267999923322,7,1.1755009999906179,1.3097090999945067,0,3.5808865999861155,4.0310618999938015,,,54.0,60.0,lauratest,60.0,
-77,77,-45,8,15,143,4,,,,,,,,,,,session,2062.5321149000083,138.0,2.0,72.0,0.020114942459904,2,0.6440032999962568,0.6939093999972101,1,0.551627799984999,0.6520700000110082,1,0.011922800011234358,0.014052100013941526,,,66.0,60.0,lauratest,60.0,
77,-77,-45,9,0,144,8,,,,,,,,,,,session,2070.1397679999936,150.0,2.0,72.0,0.020114942459904,4,0.38487050001276657,0.43460800001048483,1,1.1274425000010524,1.1950255999981891,1,0.0111505999811925,0.013039099983870983,,,60.0,54.0,lauratest,60.0,
-77,-77,0,9,1,145,13,,,,,,,,,,,session,2077.6268885000027,144.0,2.0,72.0,0.020114942459904,3,0.7179043999931309,0.7672445999924093,0,0.6579639000119641,0.7026199000247288,1,0.01096970000071451,0.012876399996457621,,,69.0,63.0,lauratest,60.0,
-77,-77,90,9,2,146,15,,,,,,,,,,,session,2085.1936519000155,156.0,2.0,72.0,0.020114942459904,3,0.7848373999877367,0.8515074999886565,6,0.5993114000011701,0.7498726999911014,1,0.012193800008390099,0.01416399999288842,,,72.0,54.0,lauratest,60.0,
-77,77,90,9,3,147,7,,,,,,,,,,,session,2093.224444499996,132.0,2.0,72.0,0.020114942459904,2,0.6717621000134386,0.7217678999877535,6,0.40365140000358224,0.4704226999892853,1,0.010973500000545755,0.012790200009476393,,,57.0,54.0,lauratest,60.0,
-77,-77,45,9,4,148,14,,,,,,,,,,,session,2099.9232963999966,138.0,2.0,72.0,0.020114942459904,3,0.3306490999821108,0.41427399998065084,7,0.6372821999830194,0.7206571999995504,1,0.3842437000130303,0.46795200000633486,,,57.0,48.0,lauratest,60.0,
77,-77,0,9,5,149,9,,,,,,,,,,,session,2106.988770099997,174.0,2.0,72.0,0.020114942459904,4,0.3545524000073783,0.3878362000104971,0,0.6047787000134122,0.7358780000067782,1,0.01107649999903515,0.012993200012715533,,,48.0,72.0,lauratest,60.0,
77,-77,45,9,6,150,10,,,,,,,,,,,session,2114.5108623999986,144.0,2.0,72.0,0.020114942459904,4,0.8351547000056598,0.9018687999923714,7,0.618530700012343,0.7520464000117499,1,0.010935799975413829,0.013007999979890883,,,66.0,54.0,lauratest,60.0,
77,77,-45,9,7,151,0,,,,,,,,,,,session,2122.0286307999922,150.0,2.0,72.0,0.020114942459904,5,0.5704929000057746,0.6199482000083663,1,0.5366145999869332,0.6118889999925159,1,0.011146699980599806,0.013092199980746955,,,60.0,60.0,lauratest,60.0,
-77,77,-45,9,8,152,4,,,,,,,,,,,session,2129.2468165000028,180.0,2.0,72.0,0.020114942459904,2,1.1482954999955837,1.2487651999981608,1,3.1668361999909393,3.2338403000030667,1,0.43295230000512674,0.48331900002085604,,,51.0,60.0,lauratest,60.0,
77,77,90,9,9,153,3,,,,,,,,,,,session,2140.7469984999916,144.0,2.0,72.0,0.020114942459904,5,0.8033958000014536,0.8703399999940302,6,0.5704389000020456,0.6538676000200212,1,0.4533190999936778,0.5199445999751333,,,48.0,63.0,lauratest,60.0,
77,-77,90,9,10,154,11,,,,,,,,,,,session,2148.4880968999933,126.0,2.0,72.0,0.020114942459904,4,1.4932441000128165,1.614997399999993,7,28.837460400012787,29.187734000006458,0,0.945287799986545,1.014080599998124,,,63.0,57.0,lauratest,60.0,
-77,-77,-45,9,11,155,12,,,,,,,,,,,session,2186.3695312000054,138.0,2.0,72.0,0.020114942459904,3,0.9531392999924719,1.021512100007385,0,1.7062243999971543,1.8228455999924336,0,0.011036299983970821,0.012888999975984916,,,54.0,69.0,lauratest,60.0,
77,77,45,9,12,156,2,,,,,,,,,,,session,2195.0302032000036,162.0,2.0,72.0,0.020114942459904,5,1.067020299989963,1.1505206000001635,7,1.2661853000172414,1.349468300002627,1,0.011291700007859617,0.013191300007747486,,,66.0,63.0,lauratest,60.0,
-77,77,0,9,13,157,5,,,,,,,,,,,session,2204.2808667999925,156.0,2.0,72.0,0.020114942459904,2,0.8881707999971695,0.9546496999973897,0,0.012679200008278713,0.014796600007684901,1,0.011632300011115149,0.0135211999877356,,,63.0,63.0,lauratest,60.0,
-77,77,45,9,14,158,6,,,,,,,,,,,session,2211.3950017000025,180.0,2.0,72.0,0.020114942459904,2,1.337719000002835,1.379824000003282,7,0.41189320001285523,0.4789325000019744,1,0.011111300002085045,0.013024899992160499,,,51.0,69.0,lauratest,60.0,
77,77,0,9,15,159,1,,,,,,,,,,,session,2219.7108494999993,150.0,2.0,72.0,0.020114942459904,5,0.8095540000067558,0.8777299000066705,0,1.5227965000085533,1.5906658000021707,1,0.011109999992186204,0.013004899985389784,,,48.0,51.0,lauratest,60.0,
77,77,0,9,15,159,1,,,materials/instructions\12_break.png,2227.79349370001,2262.6407372000103,0,34.81655650000903,34.845240900001954,0.022385999996913597,34.85713270000997,,,,,,,,,,,,,,,,,,,,lauratest,60.0,
-77,77,0,10,0,160,5,,,,,,,,,,,session,2262.661292200006,138.0,2.0,72.0,0.020114942459904,2,0.6936691000009887,0.7780433000007179,0,1.100383499986492,1.3027367999893613,1,0.8714263000001665,1.0042980999860447,,,57.0,51.0,lauratest,60.0,
77,77,45,10,1,161,2,,,,,,,,,,,session,2271.402503499994,144.0,2.0,72.0,0.020114942459904,5,0.7326288000040222,0.8493719000252895,7,1.4958435999869835,1.746046699990984,1,0.45084309999947436,0.567544599995017,,,63.0,57.0,lauratest,60.0,
77,77,0,10,2,162,1,,,,,,,,,,,session,2280.404205400002,132.0,2.0,72.0,0.020114942459904,5,0.36194780000369065,0.5332437000179198,0,0.5534747999918181,0.7230440000130329,1,0.5816009999834932,0.7302934999752324,,,57.0,66.0,lauratest,60.0,
77,-77,0,10,3,163,9,,,,,,,,,,,session,2288.515068000008,144.0,2.0,72.0,0.020114942459904,4,0.365799799998058,0.5321843999845441,0,1.1554493999865372,1.2890684999874793,1,0.01115799997933209,0.013763700000708923,,,60.0,69.0,lauratest,60.0,
77,-77,-45,10,4,164,8,,,,,,,,,,,session,2296.3407749999897,144.0,2.0,72.0,0.020114942459904,4,1.0699578000057954,1.1366175999864936,1,0.3890302000218071,0.47114170002168976,1,0.012131900002714247,0.014028200006578118,,,63.0,63.0,lauratest,60.0,
77,77,-45,10,5,165,0,,,,,,,,,,,session,2303.9059936999984,132.0,2.0,72.0,0.020114942459904,5,1.250269699987257,1.2812711999868043,1,0.38702540000667796,0.45411190000595525,1,0.011041099991416559,0.012924600014230236,,,60.0,72.0,lauratest,60.0,
-77,77,-45,10,6,166,4,,,,,,,,,,,session,2312.0880342000164,138.0,2.0,72.0,0.020114942459904,2,1.0158444000117015,1.0658624999923632,1,1.0575804999971297,1.1053283000073861,1,0.011950899992370978,0.013808099989546463,,,60.0,48.0,lauratest,60.0,
-77,-77,90,10,7,167,15,,,,,,,,,,,session,2319.8270597000082,174.0,2.0,72.0,0.020114942459904,3,0.7897965000011027,0.8542844000039622,6,0.6915577000181656,0.7416222000028938,1,0.011996099987300113,0.013892599992686883,,,60.0,54.0,lauratest,60.0,
-77,-77,45,10,8,168,14,,,,,,,,,,,session,2327.699670400005,150.0,2.0,72.0,0.020114942459904,3,1.4326654000033159,1.4823581000091508,7,0.4345128000131808,0.452021600009175,1,0.011003000021446496,0.013146000012056902,,,69.0,48.0,lauratest,60.0,
-77,77,45,10,9,169,6,,,,,,,,,,,session,2335.958697599999,138.0,2.0,72.0,0.020114942459904,2,0.7038586999988183,0.78721380000934,7,0.4761466000054497,0.5587010000017472,1,0.011010499991243705,0.012921199988340959,,,60.0,66.0,lauratest,60.0,
77,77,90,10,10,170,3,,,,,,,,,,,session,2343.1518096000073,162.0,2.0,72.0,0.020114942459904,5,0.4704802999913227,0.5363853999879211,6,0.8974124999949709,0.9807405000028666,1,0.7253795999858994,0.8460035999887623,,,54.0,54.0,lauratest,60.0,
77,-77,90,10,11,171,11,,,,,,,,,,,session,2351.4503162000037,138.0,2.0,72.0,0.020114942459904,4,0.325364799995441,0.4585977999959141,6,0.471367599995574,0.5354882999963593,1,0.012230499996803701,0.014672499994048849,,,60.0,54.0,lauratest,60.0,
-77,77,90,10,12,172,7,,,,,,,,,,,session,2358.1010875999928,174.0,2.0,72.0,0.020114942459904,2,0.6544108000234701,0.7211342000227887,6,0.4541670000180602,0.5540246000164188,1,0.1679829000204336,0.3014065000170376,,,69.0,66.0,lauratest,60.0,
-77,-77,0,10,13,173,13,,,,,,,,,,,session,2366.270860599994,162.0,2.0,72.0,0.020114942459904,3,0.5024241000064649,0.5523288999975193,0,1.148241599992616,1.2814666999911424,1,0.4335983000055421,0.5471741999790538,,,48.0,63.0,lauratest,60.0,
-77,-77,-45,10,14,174,12,,,,,,,,,,,session,2374.6807853000064,126.0,2.0,72.0,0.020114942459904,3,0.6402394000033382,0.7729008000169415,1,1.4077086999895982,1.5574570999888238,1,0.31702459999360144,0.41715530000510626,,,63.0,63.0,lauratest,60.0,
77,-77,45,10,15,175,10,,,,,,,,,,,session,2383.082405699999,150.0,2.0,72.0,0.020114942459904,4,1.5571978999942075,1.6915866000053938,7,0.038266199990175664,0.0722232999978587,0,0.011316899996018037,0.013222999987192452,,,51.0,57.0,lauratest,60.0,
77,-77,45,11,0,176,10,,,,,,,,,,,session,2390.5817672999983,126.0,2.0,72.0,0.020114942459904,4,0.35546079999767244,0.44424069998785853,7,0.4034070000052452,0.5703555000072811,1,0.011590899986913428,0.013452099985443056,,,66.0,51.0,lauratest,60.0,
77,77,0,11,1,177,1,,,,,,,,,,,session,2397.2948692000064,126.0,2.0,72.0,0.020114942459904,3,1.0153369999898132,1.1137116999889258,1,0.5930501999973785,0.6930132000125013,0,0.011151500017149374,0.013591700000688434,,,63.0,66.0,lauratest,60.0,
77,77,90,11,2,178,3,,,,,,,,,,,session,2404.810067100014,126.0,2.0,72.0,0.020114942459904,3,1.088441400002921,1.1717942999966908,0,0.2350084999925457,0.3348600000026636,0,0.01108399999793619,0.0990610999870114,,,69.0,54.0,lauratest,60.0,
-77,77,45,11,3,179,6,,,,,,,,,,,session,2412.0030048000044,138.0,2.0,72.0,0.020114942459904,2,1.1497868000005838,1.2140649000066333,7,0.6801319000078365,0.8501114000100642,1,0.23629049997543916,0.3707394999801181,,,63.0,60.0,lauratest,60.0,
-77,77,45,11,3,179,6,,,materials/instructions\12_break.png,2420.407515500003,2460.1495121000044,0,39.587098599993624,39.738951600011205,0.022419899993110448,39.744681900017895,,,,,,,,,,,,,,,,,,,,lauratest,60.0,
-77,77,90,11,4,180,7,,,,,,,,,,,session,2460.1624454999983,168.0,2.0,72.0,0.020114942459904,2,0.4121774999948684,0.5955382999964058,6,0.6238461000029929,0.7745617000036873,1,0.01209870001184754,0.01401610000175424,,,60.0,51.0,lauratest,60.0,
-77,-77,0,11,5,181,13,,,,,,,,,,,session,2468.0642769999977,156.0,2.0,72.0,0.020114942459904,3,0.235269500000868,0.6696968000032939,0,0.4413749999948777,0.591836500010686,0,0.7568519000196829,0.9233468000020366,,,54.0,48.0,lauratest,60.0,
77,-77,-45,11,6,182,8,,,,,,,,,,,session,2475.9881632000033,138.0,2.0,72.0,0.020114942459904,4,0.26928909998969175,0.4030655999958981,1,4.714161800016882,4.84767620000639,1,0.011069999978644773,0.012996099976589903,,,48.0,60.0,lauratest,60.0,
77,-77,90,11,7,183,11,,,,,,,,,,,session,2486.795057200012,132.0,2.0,72.0,0.020114942459904,4,0.08233090001158416,0.2861014000081923,6,1.436361100000795,1.5719419999804813,1,1.2861711000150535,1.4871448000194505,,,51.0,69.0,lauratest,60.0,
-77,-77,45,11,8,184,14,,,,,,,,,,,session,2495.7858898999984,150.0,2.0,72.0,0.020114942459904,3,0.10450230000424199,0.3381478000083007,1,0.5875395000039134,0.6720183000143152,1,0.33633689998532645,0.41872759998659603,,,60.0,48.0,lauratest,60.0,
-77,77,0,11,9,185,5,,,,,,,,,,,session,2502.9750971999892,180.0,2.0,72.0,0.020114942459904,2,0.8323536000098102,0.9645835000264924,0,0.7362205999961589,0.8696503000101075,1,0.011222900007851422,0.013082099991152063,,,51.0,60.0,lauratest,60.0,
77,77,-45,11,10,186,0,,,,,,,,,,,session,2511.7796225000056,150.0,2.0,72.0,0.020114942459904,5,1.0371872000105213,1.2205654999997932,1,0.8941533000033814,1.011776400002418,1,0.011106599995400757,0.013018400000873953,,,66.0,72.0,lauratest,60.0,
-77,-77,-45,11,11,187,12,,,,,,,,,,,session,2520.268775400007,156.0,2.0,72.0,0.020114942459904,3,0.5710188999946695,0.7044603999820538,1,0.7976487999840174,0.9090960999892559,1,0.011244699999224395,0.013137700007064268,,,63.0,54.0,lauratest,60.0,
77,-77,0,11,12,188,9,,,,,,,,,,,session,2527.8915399000107,126.0,2.0,72.0,0.020114942459904,4,0.4343393000017386,0.5844011000008322,0,0.01139209998655133,0.084727399982512,1,0.011038299999199808,0.012905699986731634,,,57.0,69.0,lauratest,60.0,
77,77,45,11,13,189,2,,,,,,,,,,,session,2534.2582657999883,174.0,2.0,72.0,0.020114942459904,5,0.8199440999887884,0.9700989999982994,7,1.0341431999986526,1.1676399999996647,1,0.5034771999926306,0.6536085999978241,,,57.0,69.0,lauratest,60.0,
-77,77,-45,11,14,190,4,,,,,,,,,,,session,2543.504717600008,174.0,2.0,72.0,0.020114942459904,2,1.193515999999363,1.298635099985404,0,0.031441799976164475,0.11700519997975789,0,0.01102770000579767,0.012934800004586577,,,54.0,72.0,lauratest,60.0,
-77,-77,90,11,15,191,15,,,,,,,,,,,session,2551.378894499998,144.0,2.0,72.0,0.020114942459904,3,0.3895691999932751,0.5398135999857914,6,0.6082604000112042,0.7411477999994531,1,1.371182000002591,1.5206698999973014,,,69.0,66.0,lauratest,60.0,
,,,,,,,,,materials/instructions\13_end.png,2560.2960471000115,2571.014150300005,0,10.6450085999968,10.715837600000668,0.022719200002029538,10.734512700000778,,,,,,,,,,,,,,,,,,,,lauratest,60.0,
