x,y,orientation,.thisRepN,.thisTrialN,.thisN,.thisIndex,.stepSize,.intensity,image_name,global_start_time,global_end_time,pressKey,pressRT,releaseRT,image_started,image_ended,name,globalTime,fixation_dur,stimulation_dur,post_fixation,opacity,locationResponse_pressKey,locationResponse_pressRT,locationResponse_releaseRT,orientationResponse_pressKey,orientationResponse_pressRT,orientationResponse_releaseRT,pasResponse_pressKey,pasResponse_pressRT,pasResponse_releaseRT,.response,finalOpacity,postLoc,postOri,ID,frameRate,
,,,0,-1,-1,0,0.0969100130080564,None,materials/instructions\1_welcome.png,2.550981399981538,37.97915619998821,0,35.32872220000718,35.42532989999745,0.05671139998594299,35.43258269998478,,,,,,,,,,,,,,,,,,,,test2,60.0,
,,,0,-1,-1,0,0.0969100130080564,None,materials/instructions\2_instruction.png,38.04735670000082,61.34491139999591,0,23.22887439999613,23.29555509999045,0.02143900000373833,23.306543899991084,,,,,,,,,,,,,,,,,,,,test2,60.0,
,,,0,-1,-1,0,0.0969100130080564,None,materials/instructions\3_location_demo.png,61.407356399984565,76.0555713000067,0,14.562837999983458,14.646180299983826,0.02317969998694025,14.653972699976293,,,,,,,,,,,,,,,,,,,,test2,60.0,
,,,0,-1,-1,0,0.0969100130080564,None,materials/instructions\4_orientation_demo.png,76.11163689999375,122.05632719999994,0,45.84393309999723,45.942627900018124,0.013271899981191382,45.950369400001364,,,,,,,,,,,,,,,,,,,,test2,60.0,
,,,0,-1,-1,0,0.0969100130080564,None,materials/instructions\5_pas_demo.png,122.11239229998318,143.22256279998692,0,21.008203599980334,21.108196699991822,0.014215000002877787,21.11613280000165,,,,,,,,,,,,,,,,,,,,test2,60.0,
-77,77,-45,0,-1,-1,0,0.0969100130080564,None,,,,,,,,,session,143.2384201999812,174.0,2.0,72.0,0.1,2,6.794108099973528,6.911079499986954,0,2.976960700005293,3.078427600004943,0,2.788240699999733,2.903086099977372,,,,,test2,60.0,
77,77,45,0,-1,-1,0,0.0969100130080564,None,,,,,,,,,session,160.70431380000082,138.0,2.0,72.0,0.1,5,3.8061683000123594,3.9221429000026546,7,4.1833142999967095,4.296637599996757,6,5.310047000006307,5.410381299996516,,,,,test2,60.0,
77,77,90,0,-1,-1,0,0.0969100130080564,None,,,,,,,,,session,178.01883489999454,156.0,2.0,72.0,0.1,5,2.6864386000088416,2.7871624999970663,6,1.825526800006628,1.925549499981571,6,2.8181714999955148,2.9015875999757554,,,,,test2,60.0,
77,77,0,0,-1,-1,0,0.0969100130080564,None,,,,,,,,,session,189.60943959999713,174.0,2.0,72.0,0.1,5,2.379249699995853,2.4811806000070646,1,2.764610199985327,2.8814366000005975,6,10.454664699995192,10.587617799988948,,,,,test2,60.0,
77,77,-45,0,-1,-1,0,0.0969100130080564,None,,,,,,,,,session,210.409706299979,132.0,2.0,72.0,0.1,5,1.5047704000025988,1.6341647999943234,7,3.5942364999791607,3.694408299983479,1,2.8851231999869924,3.0195406999846455,,,,,test2,60.0,
,,,0,-1,-1,0,0.0969100130080564,None,materials/instructions\10_staircase_start.png,222.72130449998076,236.52769659998012,0,13.69456249999348,13.80440809999709,0.015234499995131046,13.817296199995326,,,,,,,,,,,,,,,,,,,,test2,60.0,
,,,0,0,-1,0,0.0969100130080564,0.1,,,,,,,,,staircase,236.54765930000576,132.0,2.0,72.0,0.1,,,,0,1.7142028999805916,1.830048000003444,,,,1,,,,test2,60.0,
,,,0,1,-1,0,0.0969100130080564,0.08,,,,,,,,,staircase,242.16698439998436,168.0,2.0,72.0,0.08,,,,7,2.071017500013113,2.188323300011689,,,,1,,,,test2,60.0,
,,,0,2,-1,0,0.0969100130080564,0.064,,,,,,,,,staircase,248.48786769999424,150.0,2.0,72.0,0.064,,,,1,2.3557462000171654,2.472412400005851,,,,1,,,,test2,60.0,
,,,0,3,-1,0,0.0969100130080564,0.0512,,,,,,,,,staircase,254.774725700001,180.0,2.0,72.0,0.0512,,,,1,1.8803652999922633,2.0305190999933984,,,,1,,,,test2,60.0,
,,,0,4,-1,0,0.0969100130080564,0.04096,,,,,,,,,staircase,261.7355381999805,138.0,2.0,72.0,0.04096,,,,0,0.9663220999937039,1.0846629999869037,,,,1,,,,test2,60.0,
,,,0,5,-1,0,0.0969100130080564,0.032768000000000005,,,,,,,,,staircase,266.4518235999858,132.0,2.0,72.0,0.032768000000000005,,,,6,2.2052087000047322,2.3722537999856286,,,,1,,,,test2,60.0,
,,,0,6,-1,0,0.0969100130080564,0.026214400000000006,,,,,,,,,staircase,272.33859420000226,138.0,2.0,72.0,0.026214400000000006,,,,1,0.6844900000141934,0.83471749999444,,,,1,,,,test2,60.0,
,,,0,7,-1,0,0.0969100130080564,0.020971520000000004,,,,,,,,,staircase,276.7912116999796,168.0,2.0,72.0,0.020971520000000004,,,,6,2.505095899978187,2.639255399990361,,,,1,,,,test2,60.0,
,,,0,8,-1,0,0.0969100130080564,0.016777216000000005,,,,,,,,,staircase,284.0674398999836,162.0,2.0,72.0,0.016777216000000005,,,,6,3.7234473999997135,3.8549872000003234,,,,0,,,,test2,60.0,
,,,0,9,-1,0,0.0969100130080564,0.020971520000000007,,,,,,,,,staircase,291.9370041999791,132.0,2.0,72.0,0.020971520000000007,,,,6,1.5452962999988813,1.6626642999763135,,,,0,,,,test2,60.0,
,,,0,10,-1,0,0.0969100130080564,0.02621440000000001,,,,,,,,,staircase,297.1236949999875,132.0,2.0,72.0,0.02621440000000001,,,,6,1.9325174000114202,2.0654922999965493,,,,0,,,,test2,60.0,
,,,0,11,-1,0,0.0969100130080564,0.03276800000000001,,,,,,,,,staircase,302.71384539999417,162.0,2.0,72.0,0.03276800000000001,,,,0,1.6036992000008468,1.753123400005279,,,,0,,,,test2,60.0,
,,,0,12,-1,0,0.0969100130080564,0.04096000000000002,,,,,,,,,staircase,308.76735749997897,132.0,2.0,72.0,0.04096000000000002,,,,6,2.5712789999961387,2.7042226000048686,,,,1,,,,test2,60.0,
,,,0,13,-1,0,0.0969100130080564,0.04096000000000002,,,,,,,,,staircase,314.9873595999961,126.0,2.0,72.0,0.04096000000000002,,,,6,0.7525393000105396,0.9358716999995522,,,,1,,,,test2,60.0,
,,,0,14,-1,0,0.0969100130080564,0.03276800000000001,,,,,,,,,staircase,319.3420072000008,162.0,2.0,72.0,0.03276800000000001,,,,1,1.643995599995833,1.7993465999898035,,,,0,,,,test2,60.0,
,,,0,15,-1,0,0.0969100130080564,0.04096000000000002,,,,,,,,,staircase,325.1529506999941,126.0,2.0,72.0,0.04096000000000002,,,,6,1.0730800000019372,1.2576149000087753,,,,1,,,,test2,60.0,
,,,0,16,-1,0,0.0969100130080564,0.04096000000000002,,,,,,,,,staircase,330.05260359999374,132.0,2.0,72.0,0.04096000000000002,,,,1,0.6216464000171982,0.822714600013569,,,,1,,,,test2,60.0,
,,,0,17,-1,0,0.0969100130080564,0.03276800000000001,,,,,,,,,staircase,334.38595689999056,156.0,2.0,72.0,0.03276800000000001,,,,0,1.0569976000115275,1.2071864000172354,,,,1,,,,test2,60.0,
,,,0,18,-1,0,0.0969100130080564,0.03276800000000001,,,,,,,,,staircase,339.5064991999825,150.0,2.0,72.0,0.03276800000000001,,,,0,0.9069373999955133,1.0236450999800581,,,,1,,,,test2,60.0,
,,,0,19,-1,0,0.0969100130080564,0.02621440000000001,,,,,,,,,staircase,344.34533839998767,126.0,2.0,72.0,0.02621440000000001,,,,1,1.1148462000128347,1.461798500007717,,,,0,,,,test2,60.0,
,,,0,20,-1,0,0.0969100130080564,0.03276800000000001,,,,,,,,,staircase,349.9000764999946,180.0,2.0,72.0,0.03276800000000001,,,,7,1.5338456000026781,1.700881800003117,,,,1,,,,test2,60.0,
,,,0,21,-1,0,0.0969100130080564,0.03276800000000001,,,,,,,,,staircase,355.91927699997905,180.0,2.0,72.0,0.03276800000000001,,,,1,1.0063236000132747,1.2064493000216316,,,,1,,,,test2,60.0,
,,,0,22,-1,0,0.0969100130080564,0.02621440000000001,,,,,,,,,staircase,361.43883639998967,126.0,2.0,72.0,0.02621440000000001,,,,7,1.697850800002925,1.8153695000219159,,,,1,,,,test2,60.0,
,,,0,23,-1,0,0.0969100130080564,0.02621440000000001,,,,,,,,,staircase,366.67678320000414,162.0,2.0,72.0,0.02621440000000001,,,,7,0.5328404000028968,0.6971631000051275,,,,1,,,,test2,60.0,
,,,0,24,-1,0,0.0969100130080564,0.020971520000000007,,,,,,,,,staircase,371.99959369999124,150.0,2.0,72.0,0.020971520000000007,,,,1,1.041203200002201,1.2247302000178024,,,,1,,,,test2,60.0,
,,,0,25,-1,0,0.0969100130080564,0.020971520000000007,,,,,,,,,staircase,377.0361178999883,132.0,2.0,72.0,0.020971520000000007,,,,1,0.9562702999974135,1.121813600009773,,,,0,,,,test2,60.0,
,,,0,26,-1,0,0.0969100130080564,0.02621440000000001,,,,,,,,,staircase,381.6886603999883,162.0,2.0,72.0,0.02621440000000001,,,,0,1.1416291999921668,1.292350899981102,,,,0,,,,test2,60.0,
,,,0,27,-1,0,0.0969100130080564,0.03276800000000001,,,,,,,,,staircase,386.9929462999862,168.0,2.0,72.0,0.03276800000000001,,,,1,1.0869139999849722,1.25346669999999,,,,0,,,,test2,60.0,
,,,0,28,-1,0,0.0969100130080564,0.04096000000000002,,,,,,,,,staircase,392.68703879998066,144.0,2.0,72.0,0.04096000000000002,,,,6,1.1549865999841131,1.2915377999888733,,,,1,,,,test2,60.0,
,,,0,29,-1,0,0.0969100130080564,0.04096000000000002,,,,,,,,,staircase,397.7044543999946,150.0,2.0,72.0,0.04096000000000002,,,,0,0.6725697999936529,0.8211866999918129,,,,1,,,,test2,60.0,
,,,0,30,-1,0,0.0969100130080564,0.03276800000000001,,,,,,,,,staircase,402.33647499998915,132.0,2.0,72.0,0.03276800000000001,,,,1,0.658090600016294,0.840747400012333,,,,1,,,,test2,60.0,
,,,0,31,-1,0,0.0969100130080564,0.03276800000000001,,,,,,,,,staircase,406.6908884999866,156.0,2.0,72.0,0.03276800000000001,,,,6,3.2638228999858256,3.4143548000138253,,,,0,,,,test2,60.0,
,,,0,32,-1,0,0.0969100130080564,0.04096000000000002,,,,,,,,,staircase,414.01943559999927,144.0,2.0,72.0,0.04096000000000002,,,,7,1.2593090000154916,1.3761775000020862,,,,1,,,,test2,60.0,
,,,0,33,-1,0,0.0969100130080564,0.04096000000000002,,,,,,,,,staircase,419.13758720000624,132.0,2.0,72.0,0.04096000000000002,,,,0,1.3215496000193525,1.4894801000191364,,,,0,,,,test2,60.0,
,,,0,34,-1,0,0.0969100130080564,0.05120000000000002,,,,,,,,,staircase,424.1392280999862,162.0,2.0,72.0,0.05120000000000002,,,,1,0.8544857999950182,1.0889165999833494,,,,1,,,,test2,60.0,
,,,0,35,-1,0,0.0969100130080564,0.05120000000000002,,,,,,,,,staircase,429.2423613999854,144.0,2.0,72.0,0.05120000000000002,,,,0,0.8223853000090457,0.9621370000240859,,,,1,,,,test2,60.0,
,,,0,36,-1,0,0.0969100130080564,0.04096000000000002,,,,,,,,,staircase,433.9350515999831,162.0,2.0,72.0,0.04096000000000002,,,,1,1.272126500000013,1.3717986999836285,,,,0,,,,test2,60.0,
,,,0,37,-1,0,0.0969100130080564,0.05120000000000002,,,,,,,,,staircase,439.9184544000018,144.0,2.0,72.0,0.05120000000000002,,,,7,1.3211152000003494,1.4368244000070263,,,,1,,,,test2,60.0,
,,,0,38,-1,0,0.0969100130080564,0.05120000000000002,,,,,,,,,staircase,445.0697160999989,180.0,2.0,72.0,0.05120000000000002,,,,1,0.5733890999981668,0.739571000012802,,,,1,,,,test2,60.0,
,,,0,39,-1,0,0.0969100130080564,0.04096000000000002,,,,,,,,,staircase,450.1237003999995,138.0,2.0,72.0,0.04096000000000002,,,,7,1.2065639999927953,1.3217960000038147,,,,0,,,,test2,60.0,
,,,0,40,-1,0,0.0969100130080564,0.05120000000000002,,,,,,,,,staircase,455.05994439998176,150.0,2.0,72.0,0.05120000000000002,,,,6,1.197608999995282,1.3139789999986533,,,,1,,,,test2,60.0,
,,,0,41,-1,0,0.0969100130080564,0.05120000000000002,,,,,,,,,staircase,460.81750699999975,156.0,2.0,72.0,0.05120000000000002,,,,1,0.8529689999995753,1.002861800021492,,,,1,,,,test2,60.0,
,,,0,42,-1,0,0.0969100130080564,0.04096000000000002,,,,,,,,,staircase,465.735583200003,162.0,2.0,72.0,0.04096000000000002,,,,1,0.49589199997717515,0.6459045999799855,,,,1,,,,test2,60.0,
,,,0,43,-1,0,0.0969100130080564,0.04096000000000002,,,,,,,,,staircase,470.4049159999995,144.0,2.0,72.0,0.04096000000000002,,,,6,1.3242827999929432,1.4252470000064932,,,,1,,,,test2,60.0,
,,,0,44,-1,0,0.0969100130080564,0.03276800000000001,,,,,,,,,staircase,475.54338389998884,156.0,2.0,72.0,0.03276800000000001,,,,6,0.5655453999934252,0.7534370000066701,,,,1,,,,test2,60.0,
,,,0,45,-1,0,0.0969100130080564,0.03276800000000001,,,,,,,,,staircase,480.570862499997,162.0,2.0,72.0,0.03276800000000001,,,,0,0.5202054999826942,0.6871582999883685,,,,1,,,,test2,60.0,
,,,0,46,-1,0,0.0969100130080564,0.02621440000000001,,,,,,,,,staircase,485.3190369999793,150.0,2.0,72.0,0.02621440000000001,,,,7,0.9038607999973465,1.0373802999965847,,,,1,,,,test2,60.0,
,,,0,47,-1,0,0.0969100130080564,0.02621440000000001,,,,,,,,,staircase,490.17037499998696,150.0,2.0,72.0,0.02621440000000001,,,,0,1.0147070999955758,1.1322141999844462,,,,0,,,,test2,60.0,
,,,0,48,-1,0,0.0969100130080564,0.03276800000000001,,,,,,,,,staircase,495.12491909999517,144.0,2.0,72.0,0.03276800000000001,,,,7,0.8200920000090264,0.9368233999994118,,,,1,,,,test2,60.0,
,,,0,49,-1,0,0.0969100130080564,0.03276800000000001,,,,,,,,,staircase,499.7777886999829,132.0,2.0,72.0,0.03276800000000001,,,,0,0.3500138000235893,0.48191070000757463,,,,1,,,,test2,60.0,
,,,0,50,-1,0,0.0969100130080564,0.02621440000000001,,,,,,,,,staircase,504.38432769998326,168.0,2.0,72.0,0.02621440000000001,,,,0,0.5162786000000779,0.6330823999887798,,,,1,,,,test2,60.0,
,,,0,51,-1,0,0.0969100130080564,0.02621440000000001,,,,,,,,,staircase,509.135460599995,132.0,2.0,72.0,0.02621440000000001,,,,0,0.535533000016585,0.6522358999936841,,,,0,,,,test2,60.0,
,,,0,52,-1,0,0.0969100130080564,0.03276800000000001,,,,,,,,,staircase,513.3045563999913,168.0,2.0,72.0,0.03276800000000001,,,,6,1.4387261999945622,1.572184799995739,,,,1,,,,test2,60.0,
,,,0,53,-1,0,0.0969100130080564,0.03276800000000001,,,,,,,,,staircase,518.9931582999998,144.0,2.0,72.0,0.03276800000000001,,,,0,0.7076121999998577,0.84091639998951,,,,1,,,,test2,60.0,
,,,0,54,-1,0,0.0969100130080564,0.02621440000000001,,,,,,,,,staircase,523.7155363000056,168.0,2.0,72.0,0.02621440000000001,,,,7,1.0737747000239324,1.2236977000138722,,,,1,,,,test2,60.0,
,,,0,55,-1,0,0.0969100130080564,0.02621440000000001,,,,,,,,,staircase,529.2861441999848,162.0,2.0,72.0,0.02621440000000001,,,,0,0.8378026999998838,0.9547585999825969,,,,0,,,,test2,60.0,
,,,0,56,-1,0,0.0969100130080564,0.03276800000000001,,,,,,,,,staircase,534.2547945999831,126.0,2.0,72.0,0.03276800000000001,,,,0,0.012018000008538365,0.013937700015958399,,,,0,,,,test2,60.0,
,,,0,57,-1,0,0.0969100130080564,0.04096000000000002,,,,,,,,,staircase,537.6813410999894,156.0,2.0,72.0,0.04096000000000002,,,,1,0.6720652999938466,0.8549774000130128,,,,1,,,,test2,60.0,
,,,0,58,-1,0,0.0969100130080564,0.04096000000000002,,,,,,,,,staircase,542.4606794999854,138.0,2.0,72.0,0.04096000000000002,,,,0,1.2832890000136103,1.4166632000124082,,,,1,,,,test2,60.0,
,,,0,59,-1,0,0.0969100130080564,0.03276800000000001,,,,,,,,,staircase,548.0716119999997,150.0,2.0,72.0,0.03276800000000001,,,,0,0.5376349999860395,0.6688748000015039,,,,1,,,,test2,60.0,
,,,0,60,-1,0,0.0969100130080564,0.03276800000000001,,,,,,,,,staircase,552.5705448999943,156.0,2.0,72.0,0.03276800000000001,,,,1,0.55480539999553,0.706700999988243,,,,1,,,,test2,60.0,
,,,0,61,-1,0,0.0969100130080564,0.02621440000000001,,,,,,,,,staircase,557.1893616000016,174.0,2.0,72.0,0.02621440000000001,,,,0,1.2194352000078652,1.3528239000006579,,,,0,,,,test2,60.0,
,,,0,62,-1,0,0.0969100130080564,0.03276800000000001,,,,,,,,,staircase,562.7586152000003,156.0,2.0,72.0,0.03276800000000001,,,,6,1.2570303000102285,1.4066957000177354,,,,1,,,,test2,60.0,
,,,0,63,-1,0,0.0969100130080564,0.03276800000000001,,,,,,,,,staircase,568.1704075000016,180.0,2.0,72.0,0.03276800000000001,,,,0,0.7349456999800168,0.8902320999768563,,,,0,,,,test2,60.0,
,,,0,64,-1,0,0.0969100130080564,0.04096000000000002,,,,,,,,,staircase,573.490381599986,162.0,2.0,72.0,0.04096000000000002,,,,1,1.2712851999967825,1.4214296999853104,,,,1,,,,test2,60.0,
,,,0,65,-1,0,0.0969100130080564,0.04096000000000002,,,,,,,,,staircase,578.9378575999872,156.0,2.0,72.0,0.04096000000000002,,,,7,0.7046865999873262,0.8381139999837615,,,,1,,,,test2,60.0,
,,,0,66,-1,0,0.0969100130080564,0.03276800000000001,,,,,,,,,staircase,583.6921027999779,138.0,2.0,72.0,0.03276800000000001,,,,0,0.8215512999740895,0.955963199987309,,,,0,,,,test2,60.0,
,,,0,67,-1,0,0.0969100130080564,0.04096000000000002,,,,,,,,,staircase,588.262478699995,126.0,2.0,72.0,0.04096000000000002,,,,7,1.3660164999892004,1.4828809999744408,,,,1,,,,test2,60.0,
,,,0,68,-1,0,0.0969100130080564,0.04096000000000002,,,,,,,,,staircase,593.7199331999873,174.0,2.0,72.0,0.04096000000000002,,,,7,0.9203799999959301,1.0055399000120815,,,,1,,,,test2,60.0,
,,,0,69,-1,0,0.0969100130080564,0.03276800000000001,,,,,,,,,staircase,598.9392773,168.0,2.0,72.0,0.03276800000000001,,,,7,0.4339841000037268,0.5524245999986306,,,,1,,,,test2,60.0,
,,,0,-1,-1,0,,,materials/instructions\11_session_start.png,603.6377624000015,614.4019864999864,0,10.658773200004362,10.762157299992396,0.02154269997845404,10.76994410000043,,,,,,,,,,,,,,,,,,,,test2,60.0,
,,,0,-1,-1,0,,,,,,,,,,,,,,,,,,,,,,,,,,,0.03684352000000002,,,test2,60.0,
77,-77,90,0,0,0,11,,,,,,,,,,,session,614.4191024999891,168.0,2.0,72.0,0.03684352000000002,4,1.0252337999991141,1.1920758000051137,6,1.8041107000026386,1.9201073999865912,6,2.019858400017256,2.136645899998257,,,48.0,54.0,test2,60.0,
77,77,-45,0,1,1,0,,,,,,,,,,,session,625.6243817999784,174.0,2.0,72.0,0.03684352000000002,5,1.8513659000163898,1.9847415999975055,1,1.3187510000134353,1.4972842000133824,1,3.3544227000093088,3.5045291999995243,,,48.0,48.0,test2,60.0,
77,-77,-45,0,2,2,8,,,,,,,,,,,session,638.5720016999985,174.0,2.0,72.0,0.03684352000000002,4,1.1962894999887794,1.3622389999800362,1,0.7177955000079237,0.8847941000130959,6,1.2183493000047747,1.3542523000214715,,,48.0,54.0,test2,60.0,
-77,-77,-45,0,3,3,12,,,,,,,,,,,session,648.2281484999985,174.0,2.0,72.0,0.03684352000000002,3,0.986387899989495,1.1706045999890193,1,0.9674902999831829,1.1176494999963325,1,2.6841400999983307,2.8673826000012923,,,69.0,66.0,test2,60.0,
77,77,0,0,4,4,1,,,,,,,,,,,session,660.0233966999804,156.0,2.0,72.0,0.03684352000000002,5,1.2174059999815654,1.367629799991846,0,0.7727937999879941,0.9063064999936614,1,5.576783800002886,5.741482099983841,,,66.0,48.0,test2,60.0,
77,77,90,0,5,5,3,,,,,,,,,,,session,673.9961758999852,144.0,2.0,72.0,0.03684352000000002,5,0.430594800011022,0.6019991000066511,6,1.9059930999937933,2.0555754999804776,6,3.0186159999866504,3.1714981999830343,,,63.0,69.0,test2,60.0,
-77,-77,90,0,6,6,15,,,,,,,,,,,session,686.1240017999953,156.0,2.0,72.0,0.03684352000000002,3,0.8618967999937013,1.0119772999896668,6,1.3908103000139818,1.540809199999785,6,2.85579480000888,3.022364300006302,,,54.0,48.0,test2,60.0,
77,77,45,0,7,7,2,,,,,,,,,,,session,697.4464661999955,132.0,2.0,72.0,0.03684352000000002,5,1.1627173000015318,1.292097700003069,6,4.98751100001391,5.169684899999993,1,2.269884199980879,2.4199862999957986,,,54.0,69.0,test2,60.0,
-77,77,0,0,8,8,5,,,,,,,,,,,session,712.6915701999969,162.0,2.0,72.0,0.03684352000000002,2,0.3976091999793425,0.5131146999774501,6,1.6375659000186715,1.789290799992159,6,1.3423204999999143,1.5145659999980126,,,69.0,51.0,test2,60.0,
-77,-77,0,0,9,9,13,,,,,,,,,,,session,722.6736553999945,138.0,2.0,72.0,0.03684352000000002,3,0.751909299986437,0.8852120999945328,6,1.450675300002331,1.618241999996826,6,1.3622277999820653,1.496771699981764,,,63.0,54.0,test2,60.0,
-77,77,-45,0,10,10,4,,,,,,,,,,,session,732.6402740000049,126.0,2.0,72.0,0.03684352000000002,2,0.9990667999954894,1.183506999979727,0,3.9116662000014912,4.044983300002059,1,2.325707699987106,2.41331409997656,,,48.0,60.0,test2,60.0,
77,-77,0,0,11,11,9,,,,,,,,,,,session,745.6072537,144.0,2.0,72.0,0.03684352000000002,4,0.5565739999874495,0.740530699986266,6,1.940617000014754,2.1065096000093035,1,1.6522395000210963,1.8002528000215534,,,48.0,60.0,test2,60.0,
-77,77,45,0,12,12,6,,,,,,,,,,,session,755.9062536999991,168.0,2.0,72.0,0.03684352000000002,2,1.1544127000088338,1.2879104999883566,7,1.6358062000072096,1.802678600011859,1,2.916483300010441,3.0535154000099283,,,63.0,72.0,test2,60.0,
-77,-77,45,0,13,13,14,,,,,,,,,,,session,768.5250163000019,174.0,2.0,72.0,0.03684352000000002,3,0.561092899995856,0.7111061999748927,7,1.5711698000086471,1.7531616000051145,6,1.5706919000076596,1.7542438000091352,,,69.0,60.0,test2,60.0,
77,-77,45,0,14,14,10,,,,,,,,,,,session,779.2586733999779,156.0,2.0,72.0,0.03684352000000002,4,0.6213330999889877,0.7897758999897633,7,1.3217803000006825,1.4731241000117734,1,0.32028350001201034,0.498224900016794,,,57.0,72.0,test2,60.0,
-77,77,90,0,15,15,7,,,,,,,,,,,session,788.2188081000058,126.0,2.0,72.0,0.03684352000000002,4,1.3984623000142165,1.5484210000140592,0,0.7216490999853704,0.871459899994079,0,0.4663310000032652,0.634240100014722,,,69.0,72.0,test2,60.0,
-77,77,-45,1,0,16,4,,,,,,,,,,,session,797.6233829999983,168.0,2.0,72.0,0.03684352000000002,2,0.8848313000053167,1.0348964000004344,1,1.0200489000126254,1.1535538000171073,1,0.718130299996119,0.8849199000105727,,,72.0,69.0,test2,60.0,
77,-77,0,1,1,17,9,,,,,,,,,,,session,807.296745700005,168.0,2.0,72.0,0.03684352000000002,4,0.4281211000052281,0.598431199992774,0,3.1236528000154067,3.2743337000138126,1,1.0869424999982584,1.2558668999990914,,,69.0,69.0,test2,60.0,
-77,-77,90,1,2,18,15,,,,,,,,,,,session,819.624916300003,162.0,2.0,72.0,0.03684352000000002,3,0.39355890001752414,0.5102921000216156,6,1.644415900023887,1.7781455000222195,1,0.5507586000021547,0.7008005999960005,,,51.0,72.0,test2,60.0,
77,77,45,1,3,19,2,,,,,,,,,,,session,828.8123372999835,132.0,2.0,72.0,0.03684352000000002,5,0.8804153999953996,1.0372591999766883,7,1.2012672999990173,1.331258499994874,1,0.300508299987996,0.4660716000071261,,,60.0,66.0,test2,60.0,
77,77,45,1,3,19,2,,,materials/instructions\12_break.png,837.6690583000018,845.8066550999938,0,8.018845399987185,8.135499900003197,0.020931400009430945,8.143220100027975,,,,,,,,,,,,,,,,,,,,test2,60.0,
77,-77,45,1,4,20,10,,,,,,,,,,,session,845.8223120000039,168.0,2.0,72.0,0.03684352000000002,4,0.8594704999995884,1.008738300006371,7,1.7014474000025075,1.8932312999968417,1,1.0334001000155695,1.1855068000149913,,,66.0,66.0,test2,60.0,
-77,77,0,1,5,21,5,,,,,,,,,,,session,856.3754300999863,150.0,2.0,72.0,0.03684352000000002,2,0.979098999989219,1.112758200004464,0,1.2218072999967262,1.3708469000121113,1,1.3187464000075124,1.4708285999950022,,,72.0,66.0,test2,60.0,
-77,-77,45,1,6,22,14,,,,,,,,,,,session,866.5930643999891,180.0,2.0,72.0,0.03684352000000002,3,0.40301489998819306,0.5363674999971408,7,1.1509047000145074,1.2681809000205249,1,0.9446240999968722,1.1311604999937117,,,72.0,63.0,test2,60.0,
77,77,-45,1,7,23,0,,,,,,,,,,,session,876.2604093999835,174.0,2.0,72.0,0.03684352000000002,5,1.3780185999930836,1.5280562000116333,1,0.8818946999963373,1.0332785999926273,1,0.9827390999998897,1.1328720999881625,,,63.0,66.0,test2,60.0,
-77,-77,0,1,8,24,13,,,,,,,,,,,session,886.9897879000055,174.0,2.0,72.0,0.03684352000000002,3,0.48522349999984726,0.6185684000083711,0,1.8572308000002522,1.989570800011279,6,1.0186517999973148,1.218822299997555,,,72.0,72.0,test2,60.0,
-77,77,90,1,9,25,7,,,,,,,,,,,session,897.5645961999835,168.0,2.0,72.0,0.03684352000000002,2,0.7259754000115208,0.8760417000157759,6,1.155927599989809,1.3391548999934457,6,0.4531806999875698,0.6529296000080649,,,72.0,72.0,test2,60.0,
77,-77,-45,1,10,26,8,,,,,,,,,,,session,907.6229403000034,168.0,2.0,72.0,0.03684352000000002,4,0.4344285999832209,0.5991256999841426,7,1.7056988999829628,1.8547947999904864,1,2.0463487000088207,2.213920300011523,,,60.0,72.0,test2,60.0,
-77,-77,-45,1,11,27,12,,,,,,,,,,,session,918.7313888999925,144.0,2.0,72.0,0.03684352000000002,3,1.0945680000004359,1.1916736999992281,1,2.129049800016219,2.298381900007371,1,0.9855912000057288,1.1355497000040486,,,60.0,60.0,test2,60.0,
77,-77,90,1,12,28,11,,,,,,,,,,,session,929.857649499987,144.0,2.0,72.0,0.03684352000000002,4,1.881593400001293,2.014937200001441,0,0.44116340001346543,0.6252994000096805,0,0.4477355999988504,0.598142300004838,,,66.0,57.0,test2,60.0,
77,77,0,1,13,29,1,,,,,,,,,,,session,938.9967912999855,156.0,2.0,72.0,0.03684352000000002,5,0.8432487999962177,0.9577737999788951,0,0.8538089000212494,1.0374209000146948,0,0.7656527000071947,0.8990277000120841,,,48.0,66.0,test2,60.0,
-77,77,45,1,14,30,6,,,,,,,,,,,session,948.205930199998,162.0,2.0,72.0,0.03684352000000002,2,1.2163862000161316,1.3339016000099946,1,1.5430846000090241,1.7079498000093736,1,3.8435876999865286,3.9941923999867868,,,51.0,63.0,test2,60.0,
77,77,90,1,15,31,3,,,,,,,,,,,session,961.2814553999924,150.0,2.0,72.0,0.03684352000000002,5,0.5445947000116576,0.6777074999990873,6,1.6034064999839757,1.736934399988968,6,1.8240906999853905,2.003232399991248,,,66.0,72.0,test2,60.0,
77,77,-45,2,0,32,0,,,,,,,,,,,session,972.2570641000057,138.0,2.0,72.0,0.03684352000000002,5,0.9537963999900967,1.1031080999819096,1,1.7411368000030052,1.9087117000017315,1,0.33580639999127015,0.5032444999960717,,,69.0,60.0,test2,60.0,
77,-77,45,2,1,33,10,,,,,,,,,,,session,981.6456899000041,138.0,2.0,72.0,0.03684352000000002,4,0.520548400003463,0.702349500003038,7,1.4535172999894712,1.6306063999945763,1,1.5608974000206217,1.7135224000085145,,,48.0,60.0,test2,60.0,
-77,77,45,2,2,34,6,,,,,,,,,,,session,991.2594667999947,138.0,2.0,72.0,0.03684352000000002,2,1.0024300999939442,1.1392862999928184,1,1.2247222000150941,1.3748027000110596,1,0.9369743000133894,1.0870228999992833,,,54.0,63.0,test2,60.0,
77,-77,-45,2,3,35,8,,,,,,,,,,,session,1000.5427901999792,168.0,2.0,72.0,0.03684352000000002,4,0.7031430999923032,0.8850856999924872,1,0.6902255000022706,0.8232393000216689,1,0.9313367000140715,1.0977253000019118,,,66.0,72.0,test2,60.0,
77,77,45,2,4,36,2,,,,,,,,,,,session,1009.8918265999819,162.0,2.0,72.0,0.03684352000000002,5,0.5546631999895908,0.6545848999812733,7,1.3926988999883179,1.592539899982512,1,1.2514070999750402,1.4170712999766693,,,63.0,72.0,test2,60.0,
-77,-77,0,2,5,37,13,,,,,,,,,,,session,1020.191539499996,156.0,2.0,72.0,0.03684352000000002,3,0.421610099991085,0.5721461999928579,0,0.7391854000161402,0.8897797999961767,1,1.0882280999794602,1.2551801999798045,,,57.0,69.0,test2,60.0,
77,77,0,2,6,38,1,,,,,,,,,,,session,1029.0655657000025,138.0,2.0,72.0,0.03684352000000002,5,0.6425917999877129,0.7089387999731116,0,0.836633900005836,0.9548818999901414,6,0.3634209999872837,0.514171399991028,,,72.0,66.0,test2,60.0,
77,-77,90,2,7,39,11,,,,,,,,,,,session,1038.0410227999964,156.0,2.0,72.0,0.03684352000000002,4,0.6526269000023603,0.8516813000023831,6,1.558790900016902,1.710079400014365,1,0.9187766999821179,1.0682336999743711,,,72.0,69.0,test2,60.0,
77,-77,90,2,7,39,11,,,materials/instructions\12_break.png,1048.0929501999926,1058.7870478999976,0,10.541978799999924,10.691972100001294,0.02060610000626184,10.69959239999298,,,,,,,,,,,,,,,,,,,,test2,60.0,
-77,77,0,2,8,40,5,,,,,,,,,,,session,1058.8022836000018,144.0,2.0,72.0,0.03684352000000002,2,0.7106402000063099,0.8441055000002962,0,0.9730232000001706,1.1063665999972727,1,3.9259169999859296,4.091391599999042,,,51.0,54.0,test2,60.0,
-77,77,-45,2,9,41,4,,,,,,,,,,,session,1070.4480356999848,180.0,2.0,72.0,0.03684352000000002,2,0.7116567000048235,0.8670662000076845,1,0.6790955999749713,0.8333955999987666,1,2.498435499990592,2.66498849997879,,,54.0,66.0,test2,60.0,
-77,-77,-45,2,10,42,12,,,,,,,,,,,session,1081.3224695999816,138.0,2.0,72.0,0.03684352000000002,3,0.3674667000013869,0.5009188000112772,1,0.7359335999935865,0.8712613999960013,1,1.0369059000222478,1.186987000022782,,,57.0,66.0,test2,60.0,
-77,-77,45,2,11,43,14,,,,,,,,,,,session,1089.6772738999862,144.0,2.0,72.0,0.03684352000000002,3,0.3211832999950275,0.44052460000966676,7,0.5723439000139479,0.7218707000138238,1,0.5300985000212677,0.6747969000134617,,,54.0,54.0,test2,60.0,
-77,-77,90,2,12,44,15,,,,,,,,,,,session,1097.1704085999809,174.0,2.0,72.0,0.03684352000000002,3,0.4358986000006553,0.5529517999966629,6,2.035061600006884,2.200765399989905,6,0.011090499989222735,0.012977900012629107,,,69.0,54.0,test2,60.0,
-77,77,90,2,13,45,7,,,,,,,,,,,session,1106.8709690999822,180.0,2.0,72.0,0.03684352000000002,2,1.0713208999950439,1.2215754999779165,6,1.0119642000063322,1.162186900008237,6,0.36745700001483783,0.5509115000022575,,,66.0,69.0,test2,60.0,
77,-77,0,2,14,46,9,,,,,,,,,,,session,1116.496977200004,126.0,2.0,72.0,0.03684352000000002,4,0.37828999999328516,0.5468725999817252,6,0.7459853999898769,0.9825612000131514,1,1.3685266000102274,1.5359037000162061,,,60.0,72.0,test2,60.0,
77,77,90,2,15,47,3,,,,,,,,,,,session,1125.8405514000042,138.0,2.0,72.0,0.03684352000000002,5,1.73749129998032,1.8865145999880042,6,0.6531984999892302,0.770381999987876,6,1.3500530000019353,1.4984396999934688,,,69.0,51.0,test2,60.0,
77,77,90,3,0,48,3,,,,,,,,,,,session,1135.7273812000058,132.0,2.0,72.0,0.03684352000000002,5,0.7213455000019167,0.8359917000052519,6,0.5352480000001378,0.7093672000046354,6,2.2853470999980345,2.4371299000049476,,,66.0,66.0,test2,60.0,
77,-77,90,3,1,49,11,,,,,,,,,,,session,1145.5617846999958,144.0,2.0,72.0,0.03684352000000002,4,0.37336289999075234,0.5401389999897219,6,2.3046213000197895,2.4204066000238527,6,0.3358693999762181,0.5180235999869183,,,63.0,48.0,test2,60.0,
-77,-77,-45,3,2,50,12,,,,,,,,,,,session,1154.743376600003,144.0,2.0,72.0,0.03684352000000002,3,0.9702125999901909,1.1380081000097562,1,0.8740310000139289,1.0408097000035923,0,0.35096510002040304,0.5192548000195529,,,57.0,48.0,test2,60.0,
77,77,-45,3,3,51,0,,,,,,,,,,,session,1163.0403205000039,144.0,2.0,72.0,0.03684352000000002,5,0.41150780001771636,0.5782099000061862,1,0.3549483999959193,0.5215505000087433,1,2.170162700000219,2.33651930000633,,,66.0,60.0,test2,60.0,
-77,77,90,3,4,52,7,,,,,,,,,,,session,1172.974537699978,162.0,2.0,72.0,0.03684352000000002,5,1.367683799995575,1.4850605999818072,1,0.9536202999879606,1.1048411999945529,0,2.5877756999980193,2.7704111999773886,,,54.0,72.0,test2,60.0,
77,-77,-45,3,5,53,8,,,,,,,,,,,session,1184.5661283999798,156.0,2.0,72.0,0.03684352000000002,4,0.5444506999920122,0.7141714000026695,7,1.1551461999770254,1.3400741999794263,1,9.914708199998131,10.09810390000348,,,66.0,48.0,test2,60.0,
-77,77,45,3,6,54,6,,,,,,,,,,,session,1203.2153071999783,138.0,2.0,72.0,0.03684352000000002,2,1.0463909000100102,1.2018815999908838,7,1.4947914999793284,1.648380200000247,1,1.7360626999870874,1.9186569000012241,,,66.0,69.0,test2,60.0,
-77,77,0,3,7,55,5,,,,,,,,,,,session,1213.9905582999927,126.0,2.0,72.0,0.03684352000000002,2,1.0374826999905054,1.1879797000146937,0,0.8554304999997839,0.9885983999993186,1,1.6677071000158321,1.817955600010464,,,60.0,69.0,test2,60.0,
-77,77,-45,3,8,56,4,,,,,,,,,,,session,1223.6968000000052,162.0,2.0,72.0,0.03684352000000002,2,0.38445189999765716,0.5179784999927506,7,1.2050100000051316,1.3181474000157323,1,1.1021680000121705,1.25181829999201,,,60.0,69.0,test2,60.0,
77,-77,0,3,9,57,9,,,,,,,,,,,session,1233.0937118000002,126.0,2.0,72.0,0.03684352000000002,4,0.369700900017051,0.5378179000108503,6,1.9966411000059452,2.177911700011464,0,0.8366046999872196,1.0221913999994285,,,48.0,72.0,test2,60.0,
77,77,45,3,10,58,2,,,,,,,,,,,session,1242.377908800001,126.0,2.0,72.0,0.03684352000000002,5,0.4850205999973696,0.5849551999999676,1,1.5580722000158858,1.7235631000075955,1,0.8352722999989055,1.0195775000029244,,,60.0,57.0,test2,60.0,
77,77,0,3,11,59,1,,,,,,,,,,,session,1251.201122700004,150.0,2.0,72.0,0.03684352000000002,5,1.1362078999809455,1.2361915999790654,0,0.589171899977373,0.7378558999917004,6,0.46345589999691583,0.011930899985600263,,,69.0,54.0,test2,60.0,
77,77,0,3,11,59,1,,,materials/instructions\12_break.png,1260.2394346999936,1267.543205599999,0,7.3016037000052165,0.14610860001994297,0.019651499984320253,7.3092748999770265,,,,,,,,,,,,,,,,,,,,test2,60.0,
-77,-77,90,3,12,60,15,,,,,,,,,,,session,1267.5583497000043,180.0,2.0,72.0,0.03684352000000002,3,0.7107188999943901,0.8607457999896724,6,0.6665954999916721,0.8831658999843057,1,2.6821255999966525,2.8163715999980923,,,63.0,57.0,test2,60.0,
-77,-77,0,3,13,61,13,,,,,,,,,,,session,1278.5946277999901,156.0,2.0,72.0,0.03684352000000002,3,0.47943690000101924,0.6477295999939088,6,0.6507318000076339,0.7852006000175606,6,1.0249362000031397,1.1229076999879908,,,69.0,51.0,test2,60.0,
77,-77,45,3,14,62,10,,,,,,,,,,,session,1287.2102182999952,138.0,2.0,72.0,0.03684352000000002,4,0.6187772999983281,0.7884831999836024,7,0.2870645000075456,0.4695394999871496,6,0.2074717000068631,0.3409479999972973,,,66.0,63.0,test2,60.0,
-77,-77,45,3,15,63,14,,,,,,,,,,,session,1294.6991070999939,162.0,2.0,72.0,0.03684352000000002,3,0.41225589998066425,0.5152757999894675,7,0.9516282999829855,1.1017637999902945,6,1.6507159000029787,1.7674554999975953,,,48.0,48.0,test2,60.0,
77,77,45,4,0,64,2,,,,,,,,,,,session,1304.4103627000004,150.0,2.0,72.0,0.03684352000000002,5,0.487501900002826,0.6210044999897946,7,0.3582853999978397,0.4904069000040181,7,1.4184232999978121,1.5352937999996357,,,48.0,66.0,test2,60.0,
-77,77,0,4,1,65,5,,,,,,,,,,,session,1312.896772899985,156.0,2.0,72.0,0.03684352000000002,2,1.077863399987109,1.2221828999754507,0,0.5383373000076972,0.6716692000045441,6,3.6871947999752592,3.8371646000014152,,,63.0,60.0,test2,60.0,
-77,77,90,4,2,66,7,,,,,,,,,,,session,1324.7090274999791,138.0,2.0,72.0,0.03684352000000002,2,0.5477993999957107,0.664458499988541,6,0.9282551999785937,1.079135599982692,6,0.8857776999939233,1.0037968999822624,,,63.0,60.0,test2,60.0,
77,77,0,4,3,67,1,,,,,,,,,,,session,1333.2464143999969,150.0,2.0,72.0,0.03684352000000002,5,0.40465389998280443,0.5388114999805111,0,0.5185976999928243,0.6353884999989532,1,1.9131070000003092,2.040459699986968,,,66.0,48.0,test2,60.0,
77,-77,0,4,4,68,9,,,,,,,,,,,session,1342.323353099986,162.0,2.0,72.0,0.03684352000000002,4,0.2995653000252787,0.4503988000215031,0,0.4686216000118293,0.6525781000091229,6,1.553709500003606,1.684869399992749,,,69.0,51.0,test2,60.0,
77,-77,90,4,5,69,11,,,,,,,,,,,session,1351.31011999998,126.0,2.0,72.0,0.03684352000000002,4,0.3198565999919083,0.452294399990933,6,0.8738472000113688,0.9918305000173859,6,1.0539988999953493,0.011222100001759827,,,51.0,51.0,test2,60.0,
-77,77,-45,4,6,70,4,,,,,,,,,,,session,1359.0526510000054,138.0,2.0,72.0,0.03684352000000002,2,0.2805082999984734,0.413947900000494,1,0.8871693999972194,1.016663000016706,6,1.0200609999883454,1.152118599973619,,,63.0,69.0,test2,60.0,
77,-77,45,4,7,71,10,,,,,,,,,,,session,1367.8110207999998,162.0,2.0,72.0,0.03684352000000002,4,0.36312049999833107,0.49469069999759085,6,0.686649999988731,0.803417699993588,6,4.47518609999679,4.625847399991471,,,63.0,66.0,test2,60.0,
77,77,90,4,8,72,3,,,,,,,,,,,session,1380.0496866999893,162.0,2.0,72.0,0.03684352000000002,5,1.7271242999995593,1.8317781999940053,6,1.2173977000056766,1.353825300000608,1,0.26962959999218583,0.43655760001274757,,,66.0,69.0,test2,60.0,
-77,-77,-45,4,9,73,12,,,,,,,,,,,session,1390.125126800005,132.0,2.0,72.0,0.03684352000000002,3,0.4360337999823969,0.5650381999730598,1,0.5907440999872051,0.7573899999842979,6,3.221163600013824,3.3713457999983802,,,54.0,57.0,test2,60.0,
77,77,-45,4,10,74,0,,,,,,,,,,,session,1400.314126799989,144.0,2.0,72.0,0.03684352000000002,5,1.6562391000043135,1.7721283999853767,1,1.0172223999979906,1.1518741000036243,1,1.3809442000056151,1.5642944000137504,,,72.0,51.0,test2,60.0,
-77,77,45,4,11,75,6,,,,,,,,,,,session,1410.7086105000053,132.0,2.0,72.0,0.03684352000000002,2,0.41797670000232756,0.5503352000087034,7,1.2715007000078913,1.4396942000021227,6,0.4026057999872137,0.5347957999911159,,,57.0,57.0,test2,60.0,
-77,-77,0,4,12,76,13,,,,,,,,,,,session,1418.7774154999934,132.0,2.0,72.0,0.03684352000000002,3,0.4213144000095781,0.5714284999994561,1,0.5902495000045747,0.7908993000164628,6,2.204437799984589,2.3378138999978546,,,51.0,57.0,test2,60.0,
-77,-77,45,4,13,77,14,,,,,,,,,,,session,1427.9207556000038,168.0,2.0,72.0,0.03684352000000002,3,0.34701050000148825,0.4649457999912556,7,0.30377470000530593,0.47081870000693016,6,0.24990910000633448,0.4490847999986727,,,63.0,57.0,test2,60.0,
77,-77,-45,4,14,78,8,,,,,,,,,,,session,1436.2108403999882,180.0,2.0,72.0,0.03684352000000002,4,0.5498662000172772,0.6991649999981746,1,0.3272885999758728,0.4773803999996744,6,0.25414929998805746,0.3877399999764748,,,54.0,60.0,test2,60.0,
-77,-77,90,4,15,79,15,,,,,,,,,,,session,1444.114270799997,126.0,2.0,72.0,0.03684352000000002,3,0.801727900019614,0.9018636000109836,7,0.3581120999879204,0.4915790999948513,6,0.19577610000851564,0.37406930001452565,,,48.0,60.0,test2,60.0,
-77,-77,90,4,15,79,15,,,materials/instructions\12_break.png,1451.259732000006,1452.8235122000042,0,1.4409497999877203,1.5620108000002801,0.010634800011757761,1.5696176000055857,,,,,,,,,,,,,,,,,,,,test2,60.0,
-77,-77,90,5,0,80,15,,,,,,,,,,,session,1452.8396493000037,162.0,2.0,72.0,0.03684352000000002,3,0.31554270000196993,0.46933399999397807,6,0.7608216000080574,0.894247499993071,6,0.48868000000948086,0.6220853000122588,,,57.0,48.0,test2,60.0,
77,-77,45,5,1,81,10,,,,,,,,,,,session,1460.7296263999888,150.0,2.0,72.0,0.03684352000000002,4,0.6527534000051674,0.8213432999909855,6,0.5649792999902274,0.7126917999994475,1,0.2698357999906875,0.4373314999975264,,,66.0,69.0,test2,60.0,
77,77,-45,5,2,82,0,,,,,,,,,,,session,1468.8825286999927,168.0,2.0,72.0,0.03684352000000002,5,1.2539676000014879,1.3873826999915764,1,0.41977060001227073,0.5699625000124797,1,0.7685995000065304,0.9530105000012554,,,60.0,72.0,test2,60.0,
77,77,45,5,3,83,2,,,,,,,,,,,session,1478.4095079999825,144.0,2.0,72.0,0.03684352000000002,5,1.6363227000110783,1.736272900016047,1,0.33587680000346154,0.4692016000044532,0,0.6683698999986518,0.785192300012568,,,57.0,54.0,test2,60.0,
-77,-77,0,5,4,84,13,,,,,,,,,,,session,1487.1128211999894,132.0,2.0,72.0,0.03684352000000002,3,0.5885042999871075,0.7219135999912396,0,0.40570850000949576,0.5726885000185575,1,0.3203307999938261,0.495000800001435,,,51.0,72.0,test2,60.0,
77,-77,0,5,5,85,9,,,,,,,,,,,session,1494.5947087999957,132.0,2.0,72.0,0.03684352000000002,4,0.4153169999772217,0.532351000001654,0,1.4180572000041138,1.5383136000018567,6,0.3042835000087507,0.46913920002407394,,,51.0,66.0,test2,60.0,
77,77,90,5,6,86,3,,,,,,,,,,,session,1503.276523699984,150.0,2.0,72.0,0.03684352000000002,5,1.2026734999963082,1.352831199998036,6,0.9744323999912012,1.0744031999784056,0,0.8202988000120968,0.9725477000174578,,,54.0,69.0,test2,60.0,
-77,77,0,5,7,87,5,,,,,,,,,,,session,1512.6674672999943,150.0,2.0,72.0,0.03684352000000002,2,0.8029487000021618,0.9527795000176411,6,1.850880000012694,1.9538757000118494,1,0.31892010002047755,0.4522597000177484,,,66.0,63.0,test2,60.0,
-77,77,45,5,8,88,6,,,,,,,,,,,session,1522.1249550999783,150.0,2.0,72.0,0.03684352000000002,2,0.5489068999886513,0.7001846999919508,7,1.9014934999868274,2.0194428999966476,1,1.1897400000016205,1.3222325000097044,,,54.0,66.0,test2,60.0,
77,-77,90,5,9,89,11,,,,,,,,,,,session,1532.1133614999999,144.0,2.0,72.0,0.03684352000000002,4,0.2850633999914862,0.4529447999957483,6,1.4912021000054665,1.6425183999817818,1,1.1807889000046998,1.3278939999872819,,,72.0,48.0,test2,60.0,
77,-77,-45,5,10,90,8,,,,,,,,,,,session,1541.3914618999988,126.0,2.0,72.0,0.03684352000000002,4,0.3312791000062134,0.46620580001035705,1,2.113533199997619,2.263497299980372,1,0.9372915000130888,1.0532182000169996,,,57.0,72.0,test2,60.0,
77,77,0,5,11,91,1,,,,,,,,,,,session,1550.8610524999967,138.0,2.0,72.0,0.03684352000000002,5,0.9538227000157349,1.1045213000033982,0,0.4072625999979209,0.5379293000150938,0,2.0868313000246417,2.1870666000177152,,,48.0,63.0,test2,60.0,
-77,-77,45,5,12,92,14,,,,,,,,,,,session,1560.2681971999991,168.0,2.0,72.0,0.03684352000000002,3,0.4308491999981925,0.5309087999921758,7,1.5737993999791797,1.7428455999761354,6,0.8035338000045158,0.9038002000015695,,,48.0,57.0,test2,60.0,
-77,77,90,5,13,93,7,,,,,,,,,,,session,1570.0267456999863,168.0,2.0,72.0,0.03684352000000002,2,2.0923988000140525,2.224729900015518,6,0.538698199990904,0.6888332999951672,1,0.255485800007591,0.4211166000168305,,,69.0,60.0,test2,60.0,
-77,77,-45,5,14,94,4,,,,,,,,,,,session,1579.7507311999798,156.0,2.0,72.0,0.03684352000000002,2,1.0094307000108529,1.1337314000120386,1,1.2340541000012308,1.3692628999997396,1,0.28379299998050556,0.40077099998597987,,,69.0,63.0,test2,60.0,
-77,-77,-45,5,15,95,12,,,,,,,,,,,session,1589.0925656000036,180.0,2.0,72.0,0.03684352000000002,3,0.4725944999954663,0.6051939000026323,1,1.4571689000003971,1.6072466000041459,1,0.31897409999510273,0.46906679999665357,,,51.0,54.0,test2,60.0,
-77,77,90,6,0,96,7,,,,,,,,,,,session,1597.963619599992,138.0,2.0,72.0,0.03684352000000002,2,0.6509330999979284,0.7829627000028268,6,1.259493299992755,1.3940240999800153,6,0.011317299999063835,0.015095899987500161,,,57.0,48.0,test2,60.0,
77,-77,90,6,1,97,11,,,,,,,,,,,session,1605.6636980999901,144.0,2.0,72.0,0.03684352000000002,4,0.22805040000821464,0.36145359999500215,6,0.6713746999739669,0.8204544999753125,6,0.6202974000188988,0.7187406000157353,,,48.0,60.0,test2,60.0,
-77,-77,90,6,2,98,15,,,,,,,,,,,session,1613.627386499982,168.0,2.0,72.0,0.03684352000000002,3,0.754947200010065,0.8893166000198107,6,0.9711603000178002,1.121958400006406,1,2.1878272000176366,2.305695699993521,,,48.0,54.0,test2,60.0,
-77,-77,-45,6,3,99,12,,,,,,,,,,,session,1623.885150999995,150.0,2.0,72.0,0.03684352000000002,3,0.4462787000229582,0.598133899999084,7,0.7889706999994814,0.9223623999860138,1,0.9000814000028186,1.0683900000003632,,,51.0,60.0,test2,60.0,
-77,-77,-45,6,3,99,12,,,materials/instructions\12_break.png,1632.5318160000024,1642.662170399999,0,10.028289200010477,10.128232000017306,0.013460899994242936,10.136221299995668,,,,,,,,,,,,,,,,,,,,test2,60.0,
-77,77,-45,6,4,100,4,,,,,,,,,,,session,1642.677729099989,138.0,2.0,72.0,0.03684352000000002,2,0.8270568000152707,0.9762028999975882,1,0.6701380999875255,0.8204058000119403,1,1.9261957999842707,2.0390914999879897,,,69.0,54.0,test2,60.0,
-77,77,0,6,5,101,5,,,,,,,,,,,session,1652.3257067999803,156.0,2.0,72.0,0.03684352000000002,2,0.4962050000031013,0.6645001000142656,1,0.44009730001562275,0.5893884999968577,1,0.7982462999934796,0.9496268999937456,,,69.0,69.0,test2,60.0,
77,-77,-45,6,6,102,8,,,,,,,,,,,session,1660.8968658999947,174.0,2.0,72.0,0.03684352000000002,4,0.3340339000278618,0.49989050001022406,1,0.7725657999981195,0.9571920000016689,1,0.5367255999881309,0.6869163000083063,,,60.0,51.0,test2,60.0,
77,77,-45,6,7,103,0,,,,,,,,,,,session,1669.2335408999934,126.0,2.0,72.0,0.03684352000000002,5,0.16194140000152402,0.27406080000218935,1,0.5820834999904037,0.7136050999979489,1,1.7810071999847423,1.9142810000048485,,,51.0,72.0,test2,60.0,
77,77,90,6,8,104,3,,,,,,,,,,,session,1678.0758748999797,156.0,2.0,72.0,0.03684352000000002,5,0.7917215000197757,0.9416060000075959,6,1.0213556000089739,1.204899700009264,1,1.041765599977225,1.1749582999909762,,,54.0,57.0,test2,60.0,
77,77,0,6,9,105,1,,,,,,,,,,,session,1687.2989097999816,168.0,2.0,72.0,0.03684352000000002,5,0.3695171999861486,0.5363330999971367,6,0.9875832000107039,1.1385885000054259,1,1.7486189000192098,1.943135900015477,,,60.0,72.0,test2,60.0,
77,-77,0,6,10,106,9,,,,,,,,,,,session,1697.353830899985,126.0,2.0,72.0,0.03684352000000002,4,0.33249530001194216,0.4658709999930579,0,0.8736952000181191,1.0408408000075724,1,0.6159791999962181,0.7672082999779377,,,72.0,63.0,test2,60.0,
77,77,45,6,11,107,2,,,,,,,,,,,session,1705.4291181000008,162.0,2.0,72.0,0.03684352000000002,5,0.3117593999777455,0.47906859999056906,6,1.0063516000227537,1.1885601000103634,6,1.2391202000144403,1.3893709999974817,,,72.0,54.0,test2,60.0,
-77,-77,45,6,12,108,14,,,,,,,,,,,session,1714.7525353999808,150.0,2.0,72.0,0.03684352000000002,3,0.24378960000467487,0.4281155999924522,6,0.9390300999803003,1.0890135999943595,1,1.0644273000070825,1.2335663000121713,,,48.0,48.0,test2,60.0,
77,-77,45,6,13,109,10,,,,,,,,,,,session,1723.596053199988,144.0,2.0,72.0,0.03684352000000002,4,0.3486603999917861,0.5155181000009179,7,0.3405023999803234,0.4906567999860272,1,0.3504933000076562,0.534070800000336,,,69.0,57.0,test2,60.0,
-77,77,45,6,14,110,6,,,,,,,,,,,session,1731.0812715999782,162.0,2.0,72.0,0.03684352000000002,2,0.536828099982813,0.6860764999873936,7,3.463674300001003,3.5705114000011235,1,1.1509732000122312,1.3004512000188697,,,63.0,72.0,test2,60.0,
-77,-77,0,6,15,111,13,,,,,,,,,,,session,1743.1272586999985,138.0,2.0,72.0,0.03684352000000002,3,0.3253885000012815,0.5095179999771062,6,2.7735232999839354,2.940278899972327,1,1.1719313999929,1.3364081000036094,,,60.0,48.0,test2,60.0,
77,-77,-45,7,0,112,8,,,,,,,,,,,session,1753.4662664000061,144.0,2.0,72.0,0.03684352000000002,4,0.33567180001409724,0.48583839999628253,1,1.1866187000123318,1.3536028999951668,1,1.2895714999758638,1.4438045999850146,,,48.0,69.0,test2,60.0,
-77,-77,90,7,1,113,15,,,,,,,,,,,session,1762.5630768999981,156.0,2.0,72.0,0.03684352000000002,3,0.4024912999884691,0.5527092999836896,6,0.5552873000269756,0.7222746000043117,1,2.1801338999939617,2.380418599990662,,,57.0,63.0,test2,60.0,
-77,77,0,7,2,114,5,,,,,,,,,,,session,1772.2795466999814,180.0,2.0,72.0,0.03684352000000002,2,0.6712661999918055,0.8388318999786861,0,0.42339030001312494,0.5730624000134412,1,1.221767600014573,1.3728759000077844,,,54.0,57.0,test2,60.0,
-77,77,90,7,3,115,7,,,,,,,,,,,session,1781.3548156000033,150.0,2.0,72.0,0.03684352000000002,2,0.5755043999815825,0.7255526999942958,6,0.9019394999777433,1.0499128999945242,1,1.0814364000107162,1.265245499991579,,,63.0,69.0,test2,60.0,
77,77,90,7,4,116,3,,,,,,,,,,,session,1791.146992599999,180.0,2.0,72.0,0.03684352000000002,5,0.6370825000049081,0.7872591000050306,6,0.5717881000018679,0.7552067999786232,1,1.020437099999981,1.188967699999921,,,51.0,72.0,test2,60.0,
77,77,-45,7,5,117,0,,,,,,,,,,,session,1800.370453599986,168.0,2.0,72.0,0.03684352000000002,5,0.32949140001437627,0.4624674000078812,7,1.584845100005623,1.7206873999966774,1,0.886163100018166,1.052833300025668,,,66.0,51.0,test2,60.0,
-77,-77,-45,7,6,118,12,,,,,,,,,,,session,1809.993379099993,144.0,2.0,72.0,0.03684352000000002,2,1.4729516999796033,1.6362276999861933,1,0.20338299998547882,0.37042959994869307,0,0.29879860003711656,0.39915820001624525,,,54.0,54.0,test2,60.0,
77,77,0,7,7,119,1,,,,,,,,,,,session,1818.047458899964,150.0,2.0,72.0,0.03684352000000002,5,0.38604200002737343,0.5370511000510305,0,0.4281009000260383,0.510582200018689,6,0.26512559998081997,0.41510669997660443,,,69.0,72.0,test2,60.0,
77,77,0,7,7,119,1,,,materials/instructions\12_break.png,1825.829973099986,1825.8706753000151,6,0.036121400014963,0.038441099983174354,0.02546569996047765,0.04211419995408505,,,,,,,,,,,,,,,,,,,,test2,60.0,
77,-77,45,7,8,120,10,,,,,,,,,,,session,1825.881198899995,156.0,2.0,72.0,0.03684352000000002,4,0.3689942000200972,0.5526064000441693,7,1.122463300009258,1.2735872999764979,1,2.8842392999795265,3.0160907999961637,,,48.0,51.0,test2,60.0,
-77,-77,0,7,9,121,13,,,,,,,,,,,session,1836.943392199988,126.0,2.0,72.0,0.03684352000000002,3,0.3074820999754593,0.457729899964761,0,0.5260758000076748,0.624041999981273,1,1.4681224999949336,1.6181751000112854,,,60.0,66.0,test2,60.0,
77,-77,0,7,10,122,9,,,,,,,,,,,session,1845.3020062000141,180.0,2.0,72.0,0.03684352000000002,4,0.30105149996234104,0.4557189999613911,0,0.6697872000513598,0.8507865000283346,1,0.27876560000004247,0.41235639998922125,,,54.0,72.0,test2,60.0,
-77,-77,45,7,11,123,14,,,,,,,,,,,session,1853.9934278000146,144.0,2.0,72.0,0.03684352000000002,3,0.3908856999478303,0.5574340999592096,7,1.1894377000280656,1.37221140001202,1,0.7536893999786116,0.9202241000020877,,,60.0,51.0,test2,60.0,
77,-77,90,7,12,124,11,,,,,,,,,,,session,1862.534678099968,174.0,2.0,72.0,0.03684352000000002,4,0.31888399994932115,0.45128129998920485,6,1.0391191000235267,1.1892222000169568,1,1.31096620002063,1.4654461999889463,,,66.0,72.0,test2,60.0,
-77,77,45,7,13,125,6,,,,,,,,,,,session,1872.297193299979,126.0,2.0,72.0,0.03684352000000002,2,0.35444020002614707,0.5042860000394285,1,0.8719476999831386,1.02220289997058,6,1.0834427999798208,1.3003301999997348,,,72.0,48.0,test2,60.0,
-77,77,-45,7,14,126,4,,,,,,,,,,,session,1880.7794028000208,144.0,2.0,72.0,0.03684352000000002,2,1.3221940000075847,1.4881642999826,1,0.8953513999585994,1.0620604999712668,1,0.9720657999860123,1.1220081999781542,,,48.0,51.0,test2,60.0,
77,77,45,7,15,127,2,,,,,,,,,,,session,1889.9378676000051,144.0,2.0,72.0,0.03684352000000002,5,0.059055499965325,0.17291899997508153,7,0.9513888000510633,1.0661684999940917,1,0.6536184000433423,0.8057763000251725,,,51.0,60.0,test2,60.0,
-77,-77,90,8,0,128,15,,,,,,,,,,,session,1898.1296995999874,180.0,2.0,72.0,0.03684352000000002,3,0.3508097999729216,0.5009621999925002,6,1.5531129000009969,1.7024472000193782,6,0.9390903000021353,1.1068084999569692,,,69.0,57.0,test2,60.0,
-77,77,45,8,1,129,6,,,,,,,,,,,session,1907.982953300001,162.0,2.0,72.0,0.03684352000000002,2,0.7205678000464104,0.8685511000221595,1,0.8980827999766916,1.0481932000257075,6,1.6330575000029057,1.813264700002037,,,63.0,69.0,test2,60.0,
-77,77,90,8,2,130,7,,,,,,,,,,,session,1918.0597304999828,144.0,2.0,72.0,0.03684352000000002,2,0.3689944999641739,0.5202052000095136,6,0.7268031000276096,0.8769807000062428,1,0.8787823999882676,1.0454445999930613,,,69.0,51.0,test2,60.0,
77,-77,-45,8,3,131,8,,,,,,,,,,,session,1926.3298531000037,150.0,2.0,72.0,0.03684352000000002,4,0.33963800000492483,0.4896817000117153,7,1.5615032999776304,1.7091411000001244,1,0.8837493999744765,1.0505740999942645,,,57.0,60.0,test2,60.0,
77,77,45,8,4,132,2,,,,,,,,,,,session,1935.4695760000031,174.0,2.0,72.0,0.03684352000000002,5,0.3767406999832019,0.5456105999764986,7,1.324116200034041,1.5060373999876902,1,0.31159549998119473,0.5116357000079006,,,48.0,69.0,test2,60.0,
77,77,-45,8,5,133,0,,,,,,,,,,,session,1944.7627717999858,168.0,2.0,72.0,0.03684352000000002,5,0.33100020000711083,0.48117059998912737,1,0.6074101999984123,0.7739332999917679,1,0.7891299999901094,0.954920599993784,,,54.0,63.0,test2,60.0,
-77,-77,0,8,6,134,13,,,,,,,,,,,session,1953.1677663999726,180.0,2.0,72.0,0.03684352000000002,3,0.23590640001930296,0.4186607000301592,0,0.344939999980852,0.5129681999678724,6,1.41959029994905,1.5995233999565244,,,57.0,69.0,test2,60.0,
77,77,0,8,7,135,1,,,,,,,,,,,session,1962.2611693000072,138.0,2.0,72.0,0.03684352000000002,5,0.34844560001511127,0.4984893000219017,0,0.31850609998218715,0.501320899988059,1,0.7153507000184618,0.8835719000198878,,,57.0,48.0,test2,60.0,
-77,77,-45,8,8,136,4,,,,,,,,,,,session,1969.6478574000066,156.0,2.0,72.0,0.03684352000000002,2,0.6711801000055857,0.8212546000140719,1,0.7910079999710433,0.9599979999475181,1,0.821131200005766,1.0538553000078537,,,57.0,63.0,test2,60.0,
-77,-77,-45,8,9,137,12,,,,,,,,,,,session,1978.5364974999684,150.0,2.0,72.0,0.03684352000000002,3,0.011988599959295243,0.013884299958590418,1,0.9638483999879099,1.116937400016468,1,0.3842407999909483,0.5531457000179216,,,48.0,57.0,test2,60.0,
77,-77,45,8,10,138,10,,,,,,,,,,,session,1986.4131852000137,162.0,2.0,72.0,0.03684352000000002,4,0.3720585000119172,0.5224201999953948,7,1.8364280000096187,2.0034369000350125,6,3.1909978999756277,3.373574999975972,,,51.0,66.0,test2,60.0,
-77,77,0,8,11,139,5,,,,,,,,,,,session,1998.40252589999,168.0,2.0,72.0,0.03684352000000002,2,0.7980603000032715,0.9246758000226691,0,0.9533833000459708,1.153712400002405,6,1.320402599987574,1.5328991999849677,,,51.0,66.0,test2,60.0,
-77,77,0,8,11,139,5,,,materials/instructions\12_break.png,2008.2637561999727,2023.1029718999634,0,14.702493600023445,14.837111400032882,0.016762099985498935,14.843680199992377,,,,,,,,,,,,,,,,,,,,test2,60.0,
77,77,90,8,12,140,3,,,,,,,,,,,session,2023.1172695999849,174.0,2.0,72.0,0.03684352000000002,5,0.3655134000000544,0.4989513999898918,6,1.1371891000308096,1.270038700022269,1,1.1259268000139855,1.2589734999928623,,,69.0,69.0,test2,60.0,
77,-77,90,8,13,141,11,,,,,,,,,,,session,2033.4636451000115,162.0,2.0,72.0,0.03684352000000002,4,0.3705411999835633,0.5375223999726586,6,1.1236971000325866,1.3257332000066526,1,1.3704194000456482,1.5539820000412874,,,60.0,69.0,test2,60.0,
-77,-77,45,8,14,142,14,,,,,,,,,,,session,2043.1518519999809,150.0,2.0,72.0,0.03684352000000002,3,0.28078809997532517,0.4475371999433264,7,0.9006248000077903,1.068390000029467,1,0.8494021000224166,0.9659762000082992,,,69.0,57.0,test2,60.0,
77,-77,0,8,15,143,9,,,,,,,,,,,session,2051.6791531000054,168.0,2.0,72.0,0.03684352000000002,4,0.49723880004603416,0.6472710000234656,0,0.5421558999805711,0.6923391000018455,1,1.8526910999789834,2.0194017999456264,,,57.0,69.0,test2,60.0,
-77,77,0,9,0,144,5,,,,,,,,,,,session,2061.383492299996,138.0,2.0,72.0,0.03684352000000002,2,0.7192125000292435,0.8676116000278853,0,0.9717472000047565,1.1052879000199027,6,0.5922931000241078,0.7938680999795906,,,66.0,60.0,test2,60.0,
-77,-77,45,9,1,145,14,,,,,,,,,,,session,2069.9953745999956,180.0,2.0,72.0,0.03684352000000002,3,0.7195552000193857,0.8358055999851786,7,0.42073359998175874,0.5865640999982134,1,0.28926499997032806,0.4392775999731384,,,66.0,51.0,test2,60.0,
-77,77,-45,9,2,146,4,,,,,,,,,,,session,2078.6131993000163,132.0,2.0,72.0,0.03684352000000002,2,0.4531559000024572,0.6034695999696851,1,0.43805460003204644,0.5548273000167683,1,0.3211003000033088,0.4712516000145115,,,72.0,72.0,test2,60.0,
-77,-77,0,9,3,147,13,,,,,,,,,,,session,2086.2846400999697,132.0,2.0,72.0,0.03684352000000002,2,1.253979100030847,1.3949805000447668,1,0.3508303999551572,0.5009411999490112,0,0.30026679998263717,0.41702860000077635,,,51.0,57.0,test2,60.0,
77,77,90,9,4,148,3,,,,,,,,,,,session,2094.0280445999815,132.0,2.0,72.0,0.03684352000000002,5,1.6060098999878392,1.7390502999769524,1,1.0514372000470757,1.1846402999944985,1,1.252720299991779,1.4019936000113375,,,69.0,69.0,test2,60.0,
77,-77,45,9,5,149,10,,,,,,,,,,,session,2104.314479599998,132.0,2.0,72.0,0.03684352000000002,4,1.188628499978222,1.3375231000245549,7,2.005680800008122,2.1390101000433788,1,0.39358019997598603,0.5327088999911211,,,63.0,48.0,test2,60.0,
77,-77,0,9,6,150,9,,,,,,,,,,,session,2113.815393399971,174.0,2.0,72.0,0.03684352000000002,4,0.2946440000087023,0.42791169998236,0,0.6057661999948323,0.7392362999962643,1,1.3693701999727637,1.535809299966786,,,69.0,66.0,test2,60.0,
77,-77,-45,9,7,151,8,,,,,,,,,,,session,2123.5471508000046,144.0,2.0,72.0,0.03684352000000002,4,0.37252799997804686,0.5378985999850556,1,0.7074943000334315,0.8573164000408724,1,0.7040284000104293,0.8535099000437185,,,66.0,57.0,test2,60.0,
-77,77,90,9,8,152,7,,,,,,,,,,,session,2131.6871146999765,156.0,2.0,72.0,0.03684352000000002,2,1.4563783000339754,1.6059714000439271,6,1.6054135000449605,1.8386395000270568,1,0.7551356999902055,0.9384352000197396,,,72.0,66.0,test2,60.0,
-77,77,45,9,9,153,6,,,,,,,,,,,session,2142.4292835000088,138.0,2.0,72.0,0.03684352000000002,2,0.5705064000212587,0.7382519000093453,7,3.0568513000034727,3.2233310000156052,6,0.7666860000463203,0.9298108000075445,,,66.0,54.0,test2,60.0,
77,77,45,9,10,154,2,,,,,,,,,,,session,2153.066041300015,150.0,2.0,72.0,0.03684352000000002,5,2.0803661000099964,2.2045058000367135,6,0.7009482000139542,0.8545359999989159,1,2.7692298000329174,2.9016509000211954,,,57.0,48.0,test2,60.0,
77,77,0,9,11,155,1,,,,,,,,,,,session,2164.730514199997,168.0,2.0,72.0,0.03684352000000002,5,0.5557650999980979,0.6560216000070795,0,0.9419633999932557,1.1251820999896154,1,1.8708545999834314,2.020789899979718,,,63.0,57.0,test2,60.0,
-77,-77,90,9,12,156,15,,,,,,,,,,,session,2174.7860459999647,162.0,2.0,72.0,0.03684352000000002,3,0.08171439997386187,0.2662672000005841,6,0.9200124999624677,1.0533176999888383,6,0.9587856999714859,1.1389360000030138,,,54.0,48.0,test2,60.0,
77,-77,90,9,13,157,11,,,,,,,,,,,session,2183.0957533000037,132.0,2.0,72.0,0.03684352000000002,4,0.3323874000343494,0.4999402000103146,6,0.3542856000130996,0.5223511999938637,1,0.2837230999721214,0.4338397000101395,,,51.0,63.0,test2,60.0,
77,77,-45,9,14,158,0,,,,,,,,,,,session,2190.114021199988,168.0,2.0,72.0,0.03684352000000002,5,0.6711196000105701,0.8034327999921516,7,1.3950517000048421,1.5455124000436626,6,0.33756489999359474,0.48759909998625517,,,72.0,69.0,test2,60.0,
-77,-77,-45,9,15,159,12,,,,,,,,,,,session,2199.555016600003,150.0,2.0,72.0,0.03684352000000002,3,0.14113840000936761,0.32946580002317205,7,1.2743915999890305,1.4243174999719486,6,0.9177284999750555,1.06788200000301,,,54.0,60.0,test2,60.0,
-77,-77,-45,9,15,159,12,,,materials/instructions\12_break.png,2208.710480300011,2217.9984930999926,0,9.135835299966857,9.285883400007151,0.02104449999751523,9.293630699976347,,,,,,,,,,,,,,,,,,,,test2,60.0,
77,77,90,10,0,160,3,,,,,,,,,,,session,2218.0135773000075,180.0,2.0,72.0,0.03684352000000002,5,0.33034320001024753,0.4789232999901287,6,1.478874500025995,1.6335474000079557,6,1.1805051999981515,1.3460407999809831,,,51.0,48.0,test2,60.0,
77,-77,-45,10,1,161,8,,,,,,,,,,,session,2227.600532100012,150.0,2.0,72.0,0.03684352000000002,4,0.33010559994727373,0.4636410999810323,1,1.1416267000022344,1.289914199966006,1,0.8990575999487191,0.999943999981042,,,72.0,57.0,test2,60.0,
77,77,45,10,2,162,2,,,,,,,,,,,session,2236.466507699981,144.0,2.0,72.0,0.03684352000000002,5,0.48717469995608553,0.6008615999598987,7,0.8733338000020012,1.0399731999495998,6,0.849756499985233,1.0171765999984927,,,48.0,69.0,test2,60.0,
77,-77,0,10,3,163,9,,,,,,,,,,,session,2244.9388724999735,180.0,2.0,72.0,0.03684352000000002,4,0.2440669999923557,0.394290899974294,0,0.3187177999643609,0.4356281000073068,6,0.9691733000217937,1.1033506999956444,,,72.0,51.0,test2,60.0,
77,77,0,10,4,164,1,,,,,,,,,,,session,2253.9479728000006,126.0,2.0,72.0,0.03684352000000002,5,0.29142480000155047,0.42265449999831617,0,0.6062963000149466,0.772938999987673,6,1.1027651999611408,1.2711723999818787,,,72.0,57.0,test2,60.0,
-77,-77,-45,10,5,165,12,,,,,,,,,,,session,2262.1059153999668,168.0,2.0,72.0,0.03684352000000002,3,0.23650670005008578,0.40400920005049556,1,0.7624593999935314,0.9122940999804996,6,0.5525972999748774,0.7981781999696977,,,48.0,63.0,test2,60.0,
-77,-77,45,10,6,166,14,,,,,,,,,,,session,2270.311126500019,180.0,2.0,72.0,0.03684352000000002,3,0.29133530001854524,0.4765567000140436,7,0.920970200037118,1.0700350000406615,6,0.9160651999991387,1.0997739000013098,,,60.0,51.0,test2,60.0,
-77,77,90,10,7,167,7,,,,,,,,,,,session,2279.2815118000144,144.0,2.0,72.0,0.03684352000000002,2,0.572209500009194,0.7056388999917544,6,0.8116351999924518,0.9610644999775104,6,0.6535403999732807,0.83632599998964,,,54.0,69.0,test2,60.0,
-77,77,0,10,8,168,5,,,,,,,,,,,session,2287.670987099991,126.0,2.0,72.0,0.03684352000000002,2,0.060641600051894784,0.24180630000773817,0,0.3465355000225827,0.503207600035239,6,1.4810335999936797,1.6509347999817692,,,57.0,66.0,test2,60.0,
-77,-77,90,10,9,169,15,,,,,,,,,,,session,2296.099495099974,180.0,2.0,72.0,0.03684352000000002,2,1.5028009000234306,1.652999899990391,0,0.011637900024652481,0.026189900003373623,0,0.1729856999590993,0.3231285999645479,,,72.0,51.0,test2,60.0,
-77,77,45,10,10,170,6,,,,,,,,,,,session,2304.584154899989,126.0,2.0,72.0,0.03684352000000002,2,0.28469569998560473,0.48475559998769313,7,0.6711212000227533,0.8711976000340655,1,1.7104927999898791,1.878025299985893,,,60.0,66.0,test2,60.0,
77,-77,90,10,11,171,11,,,,,,,,,,,session,2313.461747299996,174.0,2.0,72.0,0.03684352000000002,4,0.28876579995267093,0.4555717999464832,6,0.9089491999475285,1.0757602999801748,6,0.8482738999882713,1.0009025000035763,,,72.0,48.0,test2,60.0,
-77,77,-45,10,12,172,4,,,,,,,,,,,session,2322.566178100009,180.0,2.0,72.0,0.03684352000000002,2,0.32176939997589216,0.5059868000098504,1,0.9725605999701656,1.1410229000030085,1,0.2706880999612622,0.4372983999783173,,,54.0,60.0,test2,60.0,
77,77,-45,10,13,173,0,,,,,,,,,,,session,2330.9717034000205,162.0,2.0,72.0,0.03684352000000002,5,1.1020815999945626,1.252092199982144,7,1.0006940999883227,1.103906399977859,1,1.088103600020986,1.2535408000112511,,,54.0,69.0,test2,60.0,
-77,-77,0,10,14,174,13,,,,,,,,,,,session,2341.062430299993,168.0,2.0,72.0,0.03684352000000002,5,0.9018264999613166,1.0325749999610707,0,1.303049500042107,1.4197787000448443,0,0.27107739995699376,0.4388611000031233,,,69.0,66.0,test2,60.0,
77,-77,45,10,15,175,10,,,,,,,,,,,session,2350.4541410999955,132.0,2.0,72.0,0.03684352000000002,4,0.25244589999783784,0.41906740004196763,7,0.42260930000338703,0.5414995000464842,6,0.8448906999547035,0.9998113999608904,,,63.0,51.0,test2,60.0,
77,-77,0,11,0,176,9,,,,,,,,,,,session,2357.966632099997,156.0,2.0,72.0,0.03684352000000002,4,0.31796190002933145,0.4682293999940157,6,0.6336833999957889,0.78363109997008,6,0.8559090999769978,0.9892693999572657,,,57.0,69.0,test2,60.0,
77,-77,45,11,1,177,10,,,,,,,,,,,session,2366.582212499983,162.0,2.0,72.0,0.03684352000000002,4,0.4557463999954052,0.6056537999538705,7,0.5537284000311047,0.7210313000250608,7,0.8178236000239849,0.951583500020206,,,48.0,54.0,test2,60.0,
-77,-77,45,11,2,178,14,,,,,,,,,,,session,2374.7033394000027,144.0,2.0,72.0,0.03684352000000002,3,0.22432400000980124,0.39266650000354275,7,0.345719899982214,0.5173073000041768,7,1.0704643999924883,1.2159284999943338,,,48.0,72.0,test2,60.0,
77,77,-45,11,3,179,0,,,,,,,,,,,session,2382.781153400021,126.0,2.0,72.0,0.03684352000000002,5,1.0242601999780163,1.157399300020188,1,0.4964208999881521,0.646369899972342,1,1.3366975000244565,1.4701748000225052,,,63.0,57.0,test2,60.0,
77,77,-45,11,3,179,0,,,materials/instructions\12_break.png,2391.643681299989,2397.2682020000066,4,5.473603999998886,5.6227020000224,0.02447770000435412,5.630798700032756,,,,,,,,,,,,,,,,,,,,test2,60.0,
-77,77,45,11,4,180,6,,,,,,,,,,,session,2397.2841001999914,138.0,2.0,72.0,0.03684352000000002,2,0.011273400043137372,0.18810640001902357,7,0.8319044000236318,0.9861676000291482,1,0.600348700012546,0.7168859000084922,,,51.0,54.0,test2,60.0,
77,77,90,11,5,181,3,,,,,,,,,,,session,2404.780841199972,174.0,2.0,72.0,0.03684352000000002,5,0.2506258999928832,0.3841149000218138,6,0.9230611000093631,1.0897157000144944,6,0.9429336999892257,1.0763797999825329,,,48.0,48.0,test2,60.0,
77,77,0,11,6,182,1,,,,,,,,,,,session,2413.2828126999666,180.0,2.0,72.0,0.03684352000000002,5,0.2700687000178732,0.40288350003538653,0,0.6538855000399053,0.7875502000097185,1,0.9348063999786973,1.0864303999696858,,,57.0,48.0,test2,60.0,
77,-77,90,11,7,183,11,,,,,,,,,,,session,2421.7579587000073,162.0,2.0,72.0,0.03684352000000002,4,0.010985800006892532,0.11193730001104996,6,0.589448899962008,0.7710555999656208,1,0.7555185999954119,0.9044540000031702,,,60.0,66.0,test2,60.0,
-77,-77,0,11,8,184,13,,,,,,,,,,,session,2430.4343526000157,150.0,2.0,72.0,0.03684352000000002,3,0.011204899987205863,0.14005320001160726,0,0.45489170000655577,0.6383858000044711,1,0.7034734999760985,0.870441299979575,,,72.0,57.0,test2,60.0,
-77,77,90,11,9,185,7,,,,,,,,,,,session,2438.2021134999814,168.0,2.0,72.0,0.03684352000000002,2,0.33490529999835417,0.5339166999910958,6,0.6014882000163198,0.7682190000195988,1,0.8620499999960884,0.995747399982065,,,51.0,51.0,test2,60.0,
-77,-77,-45,11,10,186,12,,,,,,,,,,,session,2446.4671808999847,156.0,2.0,72.0,0.03684352000000002,3,0.48380859999451786,0.6682293000048958,7,0.2192632999503985,0.3995301999966614,1,0.7837938999873586,0.9652654000092298,,,69.0,69.0,test2,60.0,
-77,77,0,11,11,187,5,,,,,,,,,,,session,2455.047515299986,150.0,2.0,72.0,0.03684352000000002,2,0.988784899993334,1.105429199989885,6,1.0536088999942876,1.3036116000148468,1,0.7707254000124522,0.9207616000203416,,,72.0,51.0,test2,60.0,
77,77,45,11,12,188,2,,,,,,,,,,,session,2464.371497699991,126.0,2.0,72.0,0.03684352000000002,5,0.3255003000376746,0.4802036000182852,7,1.067887499986682,1.1847643999499269,1,0.9180468999547884,1.0854623999912292,,,66.0,72.0,test2,60.0,
77,-77,-45,11,13,189,8,,,,,,,,,,,session,2473.3324332999764,174.0,2.0,72.0,0.03684352000000002,4,0.2946469999733381,0.4781762000056915,1,0.7021974999806844,0.8689709999598563,1,1.4372758999816142,1.6032585999928415,,,69.0,57.0,test2,60.0,
-77,-77,90,11,14,190,15,,,,,,,,,,,session,2482.71923029999,162.0,2.0,72.0,0.03684352000000002,3,0.28469320002477616,0.41800220002187416,6,1.2319779000245035,1.4602220000233501,1,0.7304907000507228,0.9013847000314854,,,54.0,51.0,test2,60.0,
-77,77,-45,11,15,191,4,,,,,,,,,,,session,2491.401685399993,174.0,2.0,72.0,0.03684352000000002,2,0.19122699997387826,0.37308649998158216,1,0.39211870002327487,0.5420941999764182,6,1.0670058999676257,1.2348003999795765,,,60.0,66.0,test2,60.0,
,,,,,,,,,materials/instructions\13_end.png,2500.0444608000107,2506.052780499973,0,5.85584029997699,6.006249999976717,0.0228789999964647,6.013873099989723,,,,,,,,,,,,,,,,,,,,test2,60.0,
