x,y,orientation,.thisRepN,.thisTrialN,.thisN,.thisIndex,.stepSize,.intensity,image_name,global_start_time,global_end_time,pressKey,pressRT,releaseRT,image_started,image_ended,name,globalTime,fixation_dur,stimulation_dur,post_fixation,opacity,locationResponse_pressKey,locationResponse_pressRT,locationResponse_releaseRT,orientationResponse_pressKey,orientationResponse_pressRT,orientationResponse_releaseRT,pasResponse_pressKey,pasResponse_pressRT,pasResponse_releaseRT,.response,finalOpacity,postLoc,postOri,ID,frameRate,
,,,0,-1,-1,0,0.0969100130080564,None,materials/instructions\1_welcome.png,4.002784699987387,5.769173699984094,0,1.629514600004768,1.7643330999999307,0.05564149998826906,1.7678958000033163,,,,,,,,,,,,,,,,,,,,testmagda,60.0,
,,,0,-1,-1,0,0.0969100130080564,None,materials/instructions\2_instruction.png,5.8206867999979295,6.233769699989352,0,0.26101940000080504,0.4110081000253558,0.019030600000405684,0.41986040002666414,,,,,,,,,,,,,,,,,,,,testmagda,60.0,
,,,0,-1,-1,0,0.0969100130080564,None,materials/instructions\3_location_demo.png,6.268149499985157,6.716087799984962,0,0.34716340000159107,0.44593729998450726,0.02285690000280738,0.4569288000056986,,,,,,,,,,,,,,,,,,,,testmagda,60.0,
,,,0,-1,-1,0,0.0969100130080564,None,materials/instructions\4_orientation_demo.png,6.7736287000007,7.101127299974905,0,0.24174009999842383,0.32512309998855926,0.01596580000477843,0.3326289000106044,,,,,,,,,,,,,,,,,,,,testmagda,60.0,
,,,0,-1,-1,0,0.0969100130080564,None,materials/instructions\5_pas_demo.png,7.142239599983441,7.700144799979171,0,0.4559644999972079,0.556067700003041,0.014351199992233887,0.5661165999772493,,,,,,,,,,,,,,,,,,,,testmagda,60.0,
77,77,-45,0,-1,-1,0,0.0969100130080564,None,,,,,,,,,session,7.718747799983248,156.0,2.0,72.0,0.1,5,12.625938899989706,12.792820199974813,7,2.8701153000001796,3.0240855000156444,6,3.9289159000036307,4.0102169000019785,,,,,testmagda,60.0,
77,77,90,0,-1,-1,0,0.0969100130080564,None,,,,,,,,,session,31.57137409999268,156.0,2.0,72.0,0.1,5,1.9325683000206482,2.0813053000019863,6,1.6457809999992605,1.801869799994165,7,5.0609232999850065,5.161774899985176,,,,,testmagda,60.0,
-77,77,-45,0,-1,-1,0,0.0969100130080564,None,,,,,,,,,session,44.578834899992216,132.0,2.0,72.0,0.1,2,1.2549258000217378,1.3882879000157118,1,2.745493800000986,2.845680500002345,1,2.577489699993748,2.6612192999746185,,,,,testmagda,60.0,
77,77,0,0,-1,-1,0,0.0969100130080564,None,,,,,,,,,session,55.571626299992204,168.0,2.0,72.0,0.1,5,0.2493345999973826,0.3493843000032939,0,2.326766999991378,2.427281199983554,7,2.4343285000068136,2.5160488999972586,,,,,testmagda,60.0,
77,77,45,0,-1,-1,0,0.0969100130080564,None,,,,,,,,,session,65.0442227999738,180.0,2.0,72.0,0.1,5,0.3879490999970585,0.5377831000078004,6,2.5436487999977544,2.6464605999935884,7,1.7464975999901071,1.8111283000034746,,,,,testmagda,60.0,
,,,0,-1,-1,0,0.0969100130080564,None,materials/instructions\10_staircase_start.png,74.56431190000148,99.91964670000016,0,25.23655050000525,25.35327769999276,0.022449000010965392,25.361277700023493,,,,,,,,,,,,,,,,,,,,testmagda,60.0,
,,,0,0,-1,0,0.0969100130080564,0.1,,,,,,,,,staircase,99.93472259998089,144.0,2.0,72.0,0.1,,,,1,2.0392071999958716,2.156608600023901,,,,1,,,,testmagda,60.0,
,,,0,1,-1,0,0.0969100130080564,0.08,,,,,,,,,staircase,105.80813199997647,174.0,2.0,72.0,0.08,,,,6,1.2700287000043318,1.3700521000137087,,,,1,,,,testmagda,60.0,
,,,0,2,-1,0,0.0969100130080564,0.064,,,,,,,,,staircase,111.39679699999397,132.0,2.0,72.0,0.064,,,,0,0.39980139999534003,0.5151495999889448,,,,1,,,,testmagda,60.0,
,,,0,3,-1,0,0.0969100130080564,0.0512,,,,,,,,,staircase,115.8518082999799,180.0,2.0,72.0,0.0512,,,,6,0.720753200002946,0.8207587000215426,,,,1,,,,testmagda,60.0,
,,,0,4,-1,0,0.0969100130080564,0.04096,,,,,,,,,staircase,120.98814649999258,144.0,2.0,72.0,0.04096,,,,7,1.9279849999875296,2.096515499986708,,,,1,,,,testmagda,60.0,
,,,0,5,-1,0,0.0969100130080564,0.032768000000000005,,,,,,,,,staircase,126.79260849999264,168.0,2.0,72.0,0.032768000000000005,,,,1,0.4926931000081822,0.5442534000030719,,,,1,,,,testmagda,60.0,
,,,0,6,-1,0,0.0969100130080564,0.026214400000000006,,,,,,,,,staircase,131.46173699997598,132.0,2.0,72.0,0.026214400000000006,,,,1,1.8061728000175208,1.8810016000061296,,,,0,,,,testmagda,60.0,
,,,0,7,-1,0,0.0969100130080564,0.032768000000000005,,,,,,,,,staircase,136.9052601000003,162.0,2.0,72.0,0.032768000000000005,,,,1,2.1721604999911506,2.3223252999887336,,,,1,,,,testmagda,60.0,
,,,0,8,-1,0,0.0969100130080564,0.032768000000000005,,,,,,,,,staircase,143.4384093999979,150.0,2.0,72.0,0.032768000000000005,,,,7,0.736132699996233,0.8544101000006776,,,,1,,,,testmagda,60.0,
,,,0,9,-1,0,0.0969100130080564,0.026214400000000006,,,,,,,,,staircase,148.10732029998326,150.0,2.0,72.0,0.026214400000000006,,,,0,0.4905626999970991,0.607352399994852,,,,1,,,,testmagda,60.0,
,,,0,10,-1,0,0.0969100130080564,0.026214400000000006,,,,,,,,,staircase,152.52714849999757,162.0,2.0,72.0,0.026214400000000006,,,,0,0.33612699998775497,0.4845130000030622,,,,1,,,,testmagda,60.0,
,,,0,11,-1,0,0.0969100130080564,0.020971520000000004,,,,,,,,,staircase,157.03102529997705,144.0,2.0,72.0,0.020971520000000004,,,,0,0.6646958999917842,0.8325466999958735,,,,1,,,,testmagda,60.0,
,,,0,12,-1,0,0.0969100130080564,0.020971520000000004,,,,,,,,,staircase,162.2379968999885,138.0,2.0,72.0,0.020971520000000004,,,,7,0.8451836000022013,0.9787076000066008,,,,1,,,,testmagda,60.0,
,,,0,13,-1,0,0.0969100130080564,0.016777216000000005,,,,,,,,,staircase,166.83805949997623,162.0,2.0,72.0,0.016777216000000005,,,,1,3.1028872999886516,3.218883099994855,,,,0,,,,testmagda,60.0,
,,,0,14,-1,0,0.0969100130080564,0.020971520000000007,,,,,,,,,staircase,174.07686929998454,138.0,2.0,72.0,0.020971520000000007,,,,6,1.2047783000161871,1.3048928000207525,,,,1,,,,testmagda,60.0,
,,,0,15,-1,0,0.0969100130080564,0.020971520000000007,,,,,,,,,staircase,178.99661109998124,144.0,2.0,72.0,0.020971520000000007,,,,7,1.114658899983624,1.2329313999798615,,,,1,,,,testmagda,60.0,
,,,0,16,-1,0,0.0969100130080564,0.016777216000000005,,,,,,,,,staircase,184.4884770999779,180.0,2.0,72.0,0.016777216000000005,,,,0,1.0994000000064261,1.2493284000083804,,,,1,,,,testmagda,60.0,
,,,0,17,-1,0,0.0969100130080564,0.016777216000000005,,,,,,,,,staircase,190.0572545999894,174.0,2.0,72.0,0.016777216000000005,,,,1,1.4028573999821674,1.5030191999976523,,,,1,,,,testmagda,60.0,
,,,0,18,-1,0,0.0969100130080564,0.013421772800000004,,,,,,,,,staircase,195.77744859998347,150.0,2.0,72.0,0.013421772800000004,,,,6,1.4645352000079583,1.6486616000183858,,,,0,,,,testmagda,60.0,
,,,0,19,-1,0,0.0969100130080564,0.016777216000000005,,,,,,,,,staircase,201.24760309999692,150.0,2.0,72.0,0.016777216000000005,,,,0,0.3866268999991007,0.5357476000208408,,,,1,,,,testmagda,60.0,
,,,0,20,-1,0,0.0969100130080564,0.016777216000000005,,,,,,,,,staircase,206.20439139998052,126.0,2.0,72.0,0.016777216000000005,,,,0,0.7054128000163473,0.8721744000213221,,,,1,,,,testmagda,60.0,
,,,0,21,-1,0,0.0969100130080564,0.013421772800000004,,,,,,,,,staircase,210.49063889999525,174.0,2.0,72.0,0.013421772800000004,,,,6,2.491981900006067,2.592075799999293,,,,0,,,,testmagda,60.0,
,,,0,22,-1,0,0.0969100130080564,0.016777216000000005,,,,,,,,,staircase,217.29380059998948,180.0,2.0,72.0,0.016777216000000005,,,,7,0.8211402000160888,0.9380128000047989,,,,1,,,,testmagda,60.0,
,,,0,23,-1,0,0.0969100130080564,0.016777216000000005,,,,,,,,,staircase,222.56317409998155,144.0,2.0,72.0,0.016777216000000005,,,,6,0.8846181999833789,1.0178817999840248,,,,1,,,,testmagda,60.0,
,,,0,24,-1,0,0.0969100130080564,0.013421772800000004,,,,,,,,,staircase,227.9569742999738,174.0,2.0,72.0,0.013421772800000004,,,,6,1.6148438999953214,1.747425799985649,,,,0,,,,testmagda,60.0,
,,,0,25,-1,0,0.0969100130080564,0.016777216000000005,,,,,,,,,staircase,233.9387876999972,126.0,2.0,72.0,0.016777216000000005,,,,0,0.6657932999951299,0.8500250999932177,,,,1,,,,testmagda,60.0,
,,,0,26,-1,0,0.0969100130080564,0.016777216000000005,,,,,,,,,staircase,238.20890050000162,156.0,2.0,72.0,0.016777216000000005,,,,6,0.7355432999902405,0.8388467999757268,,,,1,,,,testmagda,60.0,
,,,0,27,-1,0,0.0969100130080564,0.013421772800000004,,,,,,,,,staircase,242.96397809998598,150.0,2.0,72.0,0.013421772800000004,,,,0,1.062055699992925,1.1830672000069171,,,,0,,,,testmagda,60.0,
,,,0,28,-1,0,0.0969100130080564,0.016777216000000005,,,,,,,,,staircase,248.25657599998522,180.0,2.0,72.0,0.016777216000000005,,,,0,0.9425579000089783,1.0926404999918304,,,,1,,,,testmagda,60.0,
,,,0,29,-1,0,0.0969100130080564,0.016777216000000005,,,,,,,,,staircase,253.69125859998167,162.0,2.0,72.0,0.016777216000000005,,,,7,5.6771792999934405,5.827075200009858,,,,1,,,,testmagda,60.0,
,,,0,30,-1,0,0.0969100130080564,0.013421772800000004,,,,,,,,,staircase,263.5286877999897,168.0,2.0,72.0,0.013421772800000004,,,,7,1.3204321000084747,1.47004030001699,,,,1,,,,testmagda,60.0,
,,,0,31,-1,0,0.0969100130080564,0.013421772800000004,,,,,,,,,staircase,269.12266739999177,150.0,2.0,72.0,0.013421772800000004,,,,1,1.6549883999978192,1.7884274999960326,,,,1,,,,testmagda,60.0,
,,,0,32,-1,0,0.0969100130080564,0.010737418240000003,,,,,,,,,staircase,275.07115370000247,156.0,2.0,72.0,0.010737418240000003,,,,7,1.4685723999864422,1.6689619999960996,,,,0,,,,testmagda,60.0,
,,,0,33,-1,0,0.0969100130080564,0.013421772800000004,,,,,,,,,staircase,280.65721699999995,150.0,2.0,72.0,0.013421772800000004,,,,1,1.3234829000139143,1.4756489999999758,,,,0,,,,testmagda,60.0,
,,,0,34,-1,0,0.0969100130080564,0.016777216000000005,,,,,,,,,staircase,285.94636489998084,150.0,2.0,72.0,0.016777216000000005,,,,1,1.1429847000108566,1.276757000014186,,,,0,,,,testmagda,60.0,
,,,0,35,-1,0,0.0969100130080564,0.020971520000000007,,,,,,,,,staircase,291.1521475999907,138.0,2.0,72.0,0.020971520000000007,,,,1,0.8215055000036955,0.9350364999845624,,,,1,,,,testmagda,60.0,
,,,0,36,-1,0,0.0969100130080564,0.020971520000000007,,,,,,,,,staircase,296.0042047999741,132.0,2.0,72.0,0.020971520000000007,,,,7,1.5065480999764986,1.6912423999747261,,,,1,,,,testmagda,60.0,
,,,0,37,-1,0,0.0969100130080564,0.016777216000000005,,,,,,,,,staircase,301.22397639998235,132.0,2.0,72.0,0.016777216000000005,,,,6,1.014288199978182,1.1151939999836031,,,,1,,,,testmagda,60.0,
,,,0,38,-1,0,0.0969100130080564,0.016777216000000005,,,,,,,,,staircase,305.8604041999788,180.0,2.0,72.0,0.016777216000000005,,,,6,0.6859876000089571,0.8026834000193048,,,,1,,,,testmagda,60.0,
,,,0,39,-1,0,0.0969100130080564,0.013421772800000004,,,,,,,,,staircase,310.9802350999962,162.0,2.0,72.0,0.013421772800000004,,,,0,1.616392600000836,1.7804986000119243,,,,0,,,,testmagda,60.0,
,,,0,40,-1,0,0.0969100130080564,0.016777216000000005,,,,,,,,,staircase,317.35430589999305,174.0,2.0,72.0,0.016777216000000005,,,,0,2.0846871999965515,2.2691525999980513,,,,1,,,,testmagda,60.0,
,,,0,41,-1,0,0.0969100130080564,0.016777216000000005,,,,,,,,,staircase,323.8409979999997,180.0,2.0,72.0,0.016777216000000005,,,,0,2.139578200003598,2.306438600004185,,,,0,,,,testmagda,60.0,
,,,0,42,-1,0,0.0969100130080564,0.020971520000000007,,,,,,,,,staircase,330.4632947999926,150.0,2.0,72.0,0.020971520000000007,,,,7,1.318276700010756,1.4682920000050217,,,,1,,,,testmagda,60.0,
,,,0,43,-1,0,0.0969100130080564,0.020971520000000007,,,,,,,,,staircase,335.8234919999959,180.0,2.0,72.0,0.020971520000000007,,,,6,0.9751862999983132,1.0918456999934278,,,,1,,,,testmagda,60.0,
,,,0,44,-1,0,0.0969100130080564,0.016777216000000005,,,,,,,,,staircase,341.42287539999234,150.0,2.0,72.0,0.016777216000000005,,,,0,1.113049100007629,1.3124016000074334,,,,1,,,,testmagda,60.0,
,,,0,45,-1,0,0.0969100130080564,0.016777216000000005,,,,,,,,,staircase,346.55733459998737,180.0,2.0,72.0,0.016777216000000005,,,,0,1.2259223999863025,1.3593452000059187,,,,1,,,,testmagda,60.0,
,,,0,46,-1,0,0.0969100130080564,0.013421772800000004,,,,,,,,,staircase,352.22979929999565,132.0,2.0,72.0,0.013421772800000004,,,,1,1.5444376000086777,1.6725451000093017,,,,0,,,,testmagda,60.0,
,,,0,47,-1,0,0.0969100130080564,0.016777216000000005,,,,,,,,,staircase,357.4353926999902,162.0,2.0,72.0,0.016777216000000005,,,,6,0.7163231000013184,0.8497510000015609,,,,1,,,,testmagda,60.0,
,,,0,48,-1,0,0.0969100130080564,0.016777216000000005,,,,,,,,,staircase,362.6217871999834,162.0,2.0,72.0,0.016777216000000005,,,,7,1.1728715999925043,1.3063012000056915,,,,1,,,,testmagda,60.0,
,,,0,49,-1,0,0.0969100130080564,0.013421772800000004,,,,,,,,,staircase,367.9415053999983,174.0,2.0,72.0,0.013421772800000004,,,,6,1.1390085000020918,1.289187700022012,,,,0,,,,testmagda,60.0,
,,,0,50,-1,0,0.0969100130080564,0.016777216000000005,,,,,,,,,staircase,373.44511309999507,156.0,2.0,72.0,0.016777216000000005,,,,1,1.341850799974054,1.5142486999975517,,,,0,,,,testmagda,60.0,
,,,0,51,-1,0,0.0969100130080564,0.020971520000000007,,,,,,,,,staircase,378.8740460999834,174.0,2.0,72.0,0.020971520000000007,,,,1,1.939948099985486,2.0560005999868736,,,,1,,,,testmagda,60.0,
,,,0,52,-1,0,0.0969100130080564,0.020971520000000007,,,,,,,,,staircase,385.65628299998934,138.0,2.0,72.0,0.020971520000000007,,,,7,1.5054689999960829,1.6556543000042439,,,,0,,,,testmagda,60.0,
,,,0,53,-1,0,0.0969100130080564,0.02621440000000001,,,,,,,,,staircase,390.94062859998667,138.0,2.0,72.0,0.02621440000000001,,,,0,0.3389509000116959,0.48817190001136623,,,,1,,,,testmagda,60.0,
,,,0,54,-1,0,0.0969100130080564,0.02621440000000001,,,,,,,,,staircase,395.0466434999835,144.0,2.0,72.0,0.02621440000000001,,,,1,0.7552672000019811,0.8884958000271581,,,,1,,,,testmagda,60.0,
,,,0,55,-1,0,0.0969100130080564,0.020971520000000007,,,,,,,,,staircase,399.6483872999961,168.0,2.0,72.0,0.020971520000000007,,,,7,0.3485616999969352,0.44842010000138544,,,,1,,,,testmagda,60.0,
,,,0,56,-1,0,0.0969100130080564,0.020971520000000007,,,,,,,,,staircase,404.8545833999815,126.0,2.0,72.0,0.020971520000000007,,,,1,0.37479889998212457,0.50901859998703,,,,1,,,,testmagda,60.0,
,,,0,57,-1,0,0.0969100130080564,0.016777216000000005,,,,,,,,,staircase,408.77456439999514,144.0,2.0,72.0,0.016777216000000005,,,,7,1.0518457000143826,1.2018690000113565,,,,1,,,,testmagda,60.0,
,,,0,58,-1,0,0.0969100130080564,0.016777216000000005,,,,,,,,,staircase,413.6909581999935,132.0,2.0,72.0,0.016777216000000005,,,,1,0.9555785999982618,1.0739830000093207,,,,1,,,,testmagda,60.0,
,,,0,59,-1,0,0.0969100130080564,0.013421772800000004,,,,,,,,,staircase,418.2799384999962,150.0,2.0,72.0,0.013421772800000004,,,,0,1.1596142000053078,1.2663351999945007,,,,0,,,,testmagda,60.0,
,,,0,60,-1,0,0.0969100130080564,0.016777216000000005,,,,,,,,,staircase,423.3584312000021,126.0,2.0,72.0,0.016777216000000005,,,,0,0.3970590000099037,0.5469073000131175,,,,1,,,,testmagda,60.0,
,,,0,61,-1,0,0.0969100130080564,0.016777216000000005,,,,,,,,,staircase,427.7220482999983,168.0,2.0,72.0,0.016777216000000005,,,,7,1.343356199999107,1.473607100022491,,,,0,,,,testmagda,60.0,
,,,0,62,-1,0,0.0969100130080564,0.020971520000000007,,,,,,,,,staircase,433.30829219997395,174.0,2.0,72.0,0.020971520000000007,,,,0,0.343553000013344,0.4938192999979947,,,,1,,,,testmagda,60.0,
,,,0,63,-1,0,0.0969100130080564,0.020971520000000007,,,,,,,,,staircase,438.0300448999915,150.0,2.0,72.0,0.020971520000000007,,,,7,5.80031059999601,5.913376499986043,,,,0,,,,testmagda,60.0,
,,,0,64,-1,0,0.0969100130080564,0.02621440000000001,,,,,,,,,staircase,447.7539693999861,156.0,2.0,72.0,0.02621440000000001,,,,6,0.011266300018178299,0.013404500001342967,,,,0,,,,testmagda,60.0,
,,,0,65,-1,0,0.0969100130080564,0.03276800000000001,,,,,,,,,staircase,451.69217509997543,174.0,2.0,72.0,0.03276800000000001,,,,0,0.3382607000239659,0.47169710000162013,,,,1,,,,testmagda,60.0,
,,,0,66,-1,0,0.0969100130080564,0.03276800000000001,,,,,,,,,staircase,456.3747645999829,156.0,2.0,72.0,0.03276800000000001,,,,6,0.32372610000311397,0.39236980001442134,,,,1,,,,testmagda,60.0,
,,,0,67,-1,0,0.0969100130080564,0.02621440000000001,,,,,,,,,staircase,460.67938279997907,174.0,2.0,72.0,0.02621440000000001,,,,6,0.3232985000067856,0.4394322000152897,,,,1,,,,testmagda,60.0,
,,,0,68,-1,0,0.0969100130080564,0.02621440000000001,,,,,,,,,staircase,465.3472550000006,174.0,2.0,72.0,0.02621440000000001,,,,0,0.8316913000016939,0.9146400000026915,,,,0,,,,testmagda,60.0,
,,,0,69,-1,0,0.0969100130080564,0.03276800000000001,,,,,,,,,staircase,471.0407503999886,150.0,2.0,72.0,0.03276800000000001,,,,6,0.8933077000256162,0.9938010000041686,,,,1,,,,testmagda,60.0,
,,,0,-1,-1,0,,,materials/instructions\11_session_start.png,475.8808155999868,494.0362951999996,0,18.03947160000098,18.153476400009822,0.011511699995025992,18.163660599995637,,,,,,,,,,,,,,,,,,,,testmagda,60.0,
,,,0,-1,-1,0,,,,,,,,,,,,,,,,,,,,,,,,,,,0.019466551296000008,,,testmagda,60.0,
77,77,0,0,0,0,1,,,,,,,,,,,session,494.0558437999862,132.0,2.0,72.0,0.019466551296000008,5,1.778578400000697,1.9290054999873973,0,0.8530732000072021,0.9697605000110343,6,4.000420399999712,4.116489899985027,,,66.0,66.0,testmagda,60.0,
77,-77,45,0,1,1,10,,,,,,,,,,,session,506.9302543999802,132.0,2.0,72.0,0.019466551296000008,5,1.2538529000012204,1.3593819999950938,7,1.753270999994129,1.8893239000171889,1,3.068659500015201,3.201961000013398,,,69.0,66.0,testmagda,60.0,
-77,77,-45,0,2,2,4,,,,,,,,,,,session,519.292498099996,144.0,2.0,72.0,0.019466551296000008,2,1.8473173000093084,1.9800887000164948,7,1.504895599995507,1.687667899997905,6,2.5204487000009976,2.6700581000186503,,,54.0,57.0,testmagda,60.0,
-77,-77,0,0,3,3,13,,,,,,,,,,,session,531.3325307999912,132.0,2.0,72.0,0.019466551296000008,2,0.3585038000019267,0.5072131000051741,0,0.6029361999826506,0.7530204999784473,7,0.7842484000138938,0.9516429000068456,,,63.0,54.0,testmagda,60.0,
77,77,90,0,4,4,3,,,,,,,,,,,session,539.5910463999899,156.0,2.0,72.0,0.019466551296000008,5,1.1030271999770775,1.2352647999941837,6,1.1217858000018168,1.2552649000135716,1,2.673481500009075,2.7908633000042755,,,51.0,54.0,testmagda,60.0,
-77,77,90,0,5,5,7,,,,,,,,,,,session,550.6808972999861,168.0,2.0,72.0,0.019466551296000008,2,1.1673794999951497,1.3679969000222627,6,1.2715601999952924,1.421673800010467,6,0.6558312999841291,0.7558453000092413,,,60.0,60.0,testmagda,60.0,
77,-77,-45,0,6,6,8,,,,,,,,,,,session,560.6571571999812,144.0,2.0,72.0,0.019466551296000008,5,0.5493123999913223,0.6662086000142153,1,1.1010657000006177,1.234469999995781,1,1.607991700002458,1.7732176999852527,,,66.0,54.0,testmagda,60.0,
77,-77,90,0,7,7,11,,,,,,,,,,,session,570.1778856999881,162.0,2.0,72.0,0.019466551296000008,5,0.35444679998909123,0.4872687000024598,6,0.8713195000018459,0.9882523999840487,1,1.0125132000248414,1.1909840000153054,,,72.0,57.0,testmagda,60.0,
77,-77,0,0,8,8,9,,,,,,,,,,,session,579.1559791999753,144.0,2.0,72.0,0.019466551296000008,5,0.7161095000046771,0.8493941999913659,0,0.4233364000101574,0.5897330000007059,7,0.7018297000031453,0.8350930000015069,,,54.0,66.0,testmagda,60.0,
77,77,45,0,9,9,2,,,,,,,,,,,session,587.3084560999996,138.0,2.0,72.0,0.019466551296000008,5,1.0184482000186108,1.1185548000212293,7,5.578943000000436,5.702541399979964,0,2.6077039999945555,2.802367600001162,,,69.0,66.0,testmagda,60.0,
77,77,-45,0,10,10,0,,,,,,,,,,,session,602.9408069999772,174.0,2.0,72.0,0.019466551296000008,5,0.7393447000067681,0.8726090000127442,6,2.35617449998972,2.5214011000061873,1,1.4847366999892984,1.6691672000160906,,,63.0,60.0,testmagda,60.0,
-77,-77,-45,0,11,11,12,,,,,,,,,,,session,614.4136858999846,138.0,2.0,72.0,0.019466551296000008,3,0.969178599974839,1.151801499974681,1,2.195169500017073,2.3451367000234313,1,3.9168647000042256,4.098449999990407,,,63.0,69.0,testmagda,60.0,
-77,77,45,0,12,12,6,,,,,,,,,,,session,627.9614051999815,180.0,2.0,72.0,0.019466551296000008,5,0.6658144000102766,0.7840360999980476,6,0.47326020000036806,0.6407092000008561,0,1.2199249000113923,1.437644799996633,,,69.0,63.0,testmagda,60.0,
-77,-77,90,0,13,13,15,,,,,,,,,,,session,637.4981526999909,174.0,2.0,72.0,0.019466551296000008,3,0.38295579998521134,0.6002997999894433,6,2.2918654999812134,2.4287489999842364,1,2.2360584000125527,2.402707500004908,,,69.0,63.0,testmagda,60.0,
-77,-77,45,0,14,14,14,,,,,,,,,,,session,649.4777350999939,174.0,2.0,72.0,0.019466551296000008,3,0.3737308999989182,0.5738328000006732,7,0.8856493000057526,1.0357325999939349,1,0.9688868000230286,1.152163200022187,,,69.0,69.0,testmagda,60.0,
-77,77,0,0,15,15,5,,,,,,,,,,,session,658.9118294999935,180.0,2.0,72.0,0.019466551296000008,2,0.4175462999846786,0.5668991999991704,0,0.48475000000325963,0.7182346000045072,6,2.5479036000033375,2.726333099999465,,,72.0,48.0,testmagda,60.0,
77,-77,90,1,0,16,11,,,,,,,,,,,session,669.4581885999942,150.0,2.0,72.0,0.019466551296000008,4,0.4114584999915678,0.6297170999750961,6,1.1703694999741856,1.352425499993842,0,0.5175861000025179,0.7167494999885093,,,69.0,66.0,testmagda,60.0,
77,77,0,1,1,17,1,,,,,,,,,,,session,678.3764339999761,138.0,2.0,72.0,0.019466551296000008,5,1.95166039999458,2.071243200014578,0,0.6049098999937996,0.8048883999872487,1,3.426341400016099,3.6223578000208363,,,63.0,66.0,testmagda,60.0,
77,-77,0,1,2,18,9,,,,,,,,,,,session,690.7739912999969,174.0,2.0,72.0,0.019466551296000008,5,1.7002386999956798,1.8500117000075988,6,0.8096358000184409,0.9431844000064302,0,1.019217099994421,1.2359794999938458,,,69.0,72.0,testmagda,60.0,
77,77,90,1,3,19,3,,,,,,,,,,,session,701.5115954999928,126.0,2.0,72.0,0.019466551296000008,5,0.3692471999966074,0.48721399999340065,6,1.0879853999940678,1.2213473999872804,1,1.2448088999954052,1.4120569999795407,,,69.0,63.0,testmagda,60.0,
77,77,90,1,3,19,3,,,materials/instructions\12_break.png,710.3922855999845,713.8735042999906,0,3.3093689999950584,3.479214899998624,0.010992399998940527,3.4868292000028305,,,,,,,,,,,,,,,,,,,,testmagda,60.0,
-77,77,0,1,4,20,5,,,,,,,,,,,session,713.8891351999773,144.0,2.0,72.0,0.019466551296000008,2,0.6304520000121556,0.7783850000123493,0,0.9405580000020564,1.1248983000114094,6,2.235212900006445,2.369795000005979,,,60.0,72.0,testmagda,60.0,
-77,-77,0,1,5,21,13,,,,,,,,,,,session,724.2306734999875,174.0,2.0,72.0,0.019466551296000008,3,0.533749700000044,0.7007602000085171,0,2.010272999992594,2.2084115000034217,1,1.0644699000113178,1.1813461999990977,,,66.0,69.0,testmagda,60.0,
77,77,45,1,6,22,2,,,,,,,,,,,session,734.9245336999884,150.0,2.0,72.0,0.019466551296000008,5,0.7876629000238609,0.9216634000185877,6,1.1681382000097074,1.3192912000231445,0,0.9018986000155564,1.0853862000221852,,,63.0,66.0,testmagda,60.0,
77,77,-45,1,7,23,0,,,,,,,,,,,session,744.3607596999791,132.0,2.0,72.0,0.019466551296000008,5,0.43554379997658543,0.5680916999990586,1,2.12277929999982,2.2571648999874014,6,1.8287239999917801,1.9786916999728419,,,60.0,60.0,testmagda,60.0,
77,-77,45,1,8,24,10,,,,,,,,,,,session,754.8116505999933,138.0,2.0,72.0,0.019466551296000008,4,0.6304359000059776,0.8158488000044599,7,1.086108699993929,1.2352625000057742,1,1.6650097999954596,1.7989954999939073,,,63.0,48.0,testmagda,60.0,
-77,77,45,1,9,25,6,,,,,,,,,,,session,764.6782100999844,132.0,2.0,72.0,0.019466551296000008,2,1.168895499984501,1.3191116999951191,1,1.3095044000074267,1.4773165000078734,1,0.903048400010448,1.0539941000170074,,,54.0,51.0,testmagda,60.0,
77,-77,-45,1,10,26,8,,,,,,,,,,,session,773.9175004999852,156.0,2.0,72.0,0.019466551296000008,5,0.7853726999892388,0.9355713999830186,6,0.6530691999942064,0.7886524999921676,0,0.5196804000006523,0.7199022999848239,,,69.0,54.0,testmagda,60.0,
-77,77,-45,1,11,27,4,,,,,,,,,,,session,783.0927079999819,150.0,2.0,72.0,0.019466551296000008,2,0.47004010001546703,0.6523371000075713,6,0.9871177999884821,1.1372932000085711,1,0.49811260000569746,0.6481319000013173,,,69.0,72.0,testmagda,60.0,
-77,-77,-45,1,12,28,12,,,,,,,,,,,session,791.8296301999944,144.0,2.0,72.0,0.019466551296000008,3,0.4183687999902759,0.6184262000024319,1,2.040098299999954,2.2183993000071496,1,0.3201998000149615,0.43825740000465885,,,66.0,69.0,testmagda,60.0,
-77,-77,90,1,13,29,15,,,,,,,,,,,session,801.196022499993,138.0,2.0,72.0,0.019466551296000008,3,0.8380896000016946,0.9878097999899182,6,0.9251419999927748,1.0572730000130832,6,1.4531150999828242,1.5009750999743119,,,48.0,72.0,testmagda,60.0,
-77,-77,45,1,14,30,14,,,,,,,,,,,session,810.4957364999864,180.0,2.0,72.0,0.019466551296000008,3,0.41646249999757856,0.5839532999962103,7,1.0409643999882974,1.1736115999810863,1,1.6882488999981433,1.8111767999944277,,,51.0,60.0,testmagda,60.0,
-77,77,90,1,15,31,7,,,,,,,,,,,session,820.3617466999858,168.0,2.0,72.0,0.019466551296000008,2,0.8814177999738604,1.04781930000172,6,0.7779630000004545,0.8947497000044677,6,0.6168907999817748,0.7669364000030328,,,51.0,51.0,testmagda,60.0,
77,-77,-45,2,0,32,8,,,,,,,,,,,session,829.6097061999899,132.0,2.0,72.0,0.019466551296000008,4,0.37019560000044294,0.5693075999733992,1,1.7731181000126526,1.9398995999945328,6,2.47303799999645,2.6064668000035454,,,66.0,63.0,testmagda,60.0,
-77,77,90,2,1,33,7,,,,,,,,,,,session,840.5182037999912,150.0,2.0,72.0,0.019466551296000008,2,0.5734376000182237,0.7065141000202857,6,1.838885199977085,1.955406299995957,1,1.517484300013166,1.650516499998048,,,60.0,57.0,testmagda,60.0,
-77,-77,0,2,2,34,13,,,,,,,,,,,session,851.3261511999881,174.0,2.0,72.0,0.019466551296000008,3,0.7925075000093784,0.9778345000231639,0,0.45992829999886453,0.6577130999939982,7,1.0523503000149503,1.1856682999932673,,,63.0,48.0,testmagda,60.0,
77,77,90,2,3,35,3,,,,,,,,,,,session,860.3675234999973,144.0,2.0,72.0,0.019466551296000008,5,0.8126895000168588,0.9753873000154272,6,0.43176939999102615,0.5820369999855757,1,0.7991218999959528,0.9325450999895111,,,69.0,51.0,testmagda,60.0,
77,77,-45,2,4,36,0,,,,,,,,,,,session,868.7079797999759,162.0,2.0,72.0,0.019466551296000008,5,0.7311648999748286,0.8812994999752846,7,1.1689642000128515,1.335927800013451,1,0.988957900000969,1.1391824000165798,,,51.0,69.0,testmagda,60.0,
77,77,45,2,5,37,2,,,,,,,,,,,session,878.2131113999931,156.0,2.0,72.0,0.019466551296000008,5,0.3881925999885425,0.5216521999973338,7,1.256237499997951,1.4064177999971434,1,0.4213345999887679,0.5715179999824613,,,69.0,66.0,testmagda,60.0,
-77,-77,-45,2,6,38,12,,,,,,,,,,,session,887.1068938999961,156.0,2.0,72.0,0.019466551296000008,3,0.38445419998606667,0.5844637999834958,1,1.3917694999836385,1.541721099987626,1,1.2528993000159971,1.3863509000220802,,,60.0,48.0,testmagda,60.0,
77,77,0,2,7,39,1,,,,,,,,,,,session,896.9432876999781,126.0,2.0,72.0,0.019466551296000008,5,0.6617776999773923,0.7798657999956049,0,0.758131799986586,0.9580420999845956,7,0.40897319998475723,0.5588141999905929,,,54.0,48.0,testmagda,60.0,
77,77,0,2,7,39,1,,,materials/instructions\12_break.png,904.512954899983,907.2491815999965,0,2.5841968999884557,2.7341130999848247,0.021236700005829334,2.742136400018353,,,,,,,,,,,,,,,,,,,,testmagda,60.0,
77,-77,90,2,8,40,11,,,,,,,,,,,session,907.2648104999971,156.0,2.0,72.0,0.019466551296000008,4,0.4129817000066396,0.593270700017456,6,0.9684116000134964,1.102522000001045,7,0.5734472000040114,0.6898602999863215,,,48.0,63.0,testmagda,60.0,
-77,-77,45,2,9,41,14,,,,,,,,,,,session,916.1932199999865,132.0,2.0,72.0,0.019466551296000008,3,0.47168049999163486,0.6551379000011366,1,1.3863941000017803,1.538678799988702,1,0.6269324999884702,0.7579686999961268,,,51.0,63.0,testmagda,60.0,
-77,77,-45,2,10,42,4,,,,,,,,,,,session,924.6821513999894,144.0,2.0,72.0,0.019466551296000008,2,0.5052424999885261,0.6553161999909207,6,2.281296500004828,2.440322999987984,1,3.882996499974979,4.01628039998468,,,60.0,69.0,testmagda,60.0,
-77,77,45,2,11,43,6,,,,,,,,,,,session,937.7935479999869,138.0,2.0,72.0,0.019466551296000008,2,0.6079103999945801,0.7412063999800012,7,0.958472400001483,1.0907155000022613,7,0.6847880999848712,0.8701363999862224,,,48.0,72.0,testmagda,60.0,
77,-77,45,2,12,44,10,,,,,,,,,,,session,946.2495830999978,162.0,2.0,72.0,0.019466551296000008,4,0.4191327000153251,0.5702556000032928,7,0.890169699996477,1.050281100004213,1,0.35019509997800924,0.5005373999883886,,,54.0,72.0,testmagda,60.0,
-77,-77,90,2,13,45,15,,,,,,,,,,,session,954.6293866999913,156.0,2.0,72.0,0.019466551296000008,3,0.4005306000181008,0.5983262000081595,6,0.56806069999584,0.6839040000049863,6,0.43394969997461885,0.5340177999751177,,,51.0,60.0,testmagda,60.0,
77,-77,0,2,14,46,9,,,,,,,,,,,session,962.5265537999803,138.0,2.0,72.0,0.019466551296000008,4,0.4013457999972161,0.5680444999889005,0,1.1096614000271074,1.3101458000019193,6,0.3856933999923058,0.5531047999975272,,,60.0,57.0,testmagda,60.0,
-77,77,0,2,15,47,5,,,,,,,,,,,session,970.6334213999799,126.0,2.0,72.0,0.019466551296000008,2,0.43487590001313947,0.5858463000040501,0,0.886793999990914,1.0581685999932233,1,0.5006388000037987,0.6338719000050332,,,57.0,48.0,testmagda,60.0,
77,77,45,3,0,48,2,,,,,,,,,,,session,978.225609599991,174.0,2.0,72.0,0.019466551296000008,5,0.5777120999991894,0.694334700005129,7,0.9115007999935187,1.0428955999959726,1,0.4829439999884926,0.6006727999774739,,,51.0,60.0,testmagda,60.0,
77,77,0,3,1,49,1,,,,,,,,,,,session,986.7795626999869,180.0,2.0,72.0,0.019466551296000008,5,0.3714944000239484,0.5048942000139505,0,0.3160181999846827,0.46635249999235384,7,0.5827131999831181,0.6827629999897908,,,69.0,51.0,testmagda,60.0,
77,-77,0,3,2,50,9,,,,,,,,,,,session,994.852900799975,132.0,2.0,72.0,0.019466551296000008,4,0.31906080001499504,0.49786760000279173,0,0.4693658000032883,0.6377344999928027,7,0.5665434999973513,0.6847494999819901,,,51.0,57.0,testmagda,60.0,
77,-77,45,3,3,51,10,,,,,,,,,,,session,1002.495737099991,150.0,2.0,72.0,0.019466551296000008,4,0.4165847999975085,0.5666451999859419,7,1.404862299998058,1.570760100003099,1,0.35372559999814257,0.4869607000146061,,,54.0,63.0,testmagda,60.0,
-77,77,45,3,4,52,6,,,,,,,,,,,session,1011.0133420999919,150.0,2.0,72.0,0.019466551296000008,2,0.33366999999270774,0.451468199986266,7,1.0082610000099521,1.1582416000019293,6,2.4931516999786254,2.642722299991874,,,69.0,69.0,testmagda,60.0,
-77,77,0,3,5,53,5,,,,,,,,,,,session,1021.5083028999798,156.0,2.0,72.0,0.019466551296000008,2,0.4504061999905389,0.5670842999825254,0,0.4894993999914732,0.6390855000063311,7,0.39960669999709353,0.5168896999966819,,,63.0,69.0,testmagda,60.0,
-77,-77,-45,3,6,54,12,,,,,,,,,,,session,1029.5100215999992,132.0,2.0,72.0,0.019466551296000008,3,0.35445440001785755,0.5379286000097636,1,1.3393102000118233,1.4405108999926597,6,1.0411103000224102,1.158137699996587,,,48.0,60.0,testmagda,60.0,
-77,-77,0,3,7,55,13,,,,,,,,,,,session,1038.0859802999767,126.0,2.0,72.0,0.019466551296000008,3,0.318916199990781,0.516426499991212,0,0.721608300023945,0.8884568000212312,7,0.48526650000712834,0.6506047000002582,,,66.0,51.0,testmagda,60.0,
-77,-77,45,3,8,56,14,,,,,,,,,,,session,1045.744972799992,132.0,2.0,72.0,0.019466551296000008,3,0.32338670000899583,0.5238867000152823,7,0.8540528000157792,1.0174162000184879,6,0.37301989999832585,0.48983370000496507,,,66.0,66.0,testmagda,60.0,
-77,77,-45,3,9,57,4,,,,,,,,,,,session,1053.629266199976,144.0,2.0,72.0,0.019466551296000008,2,0.37250440000207163,0.5391802999947686,7,0.48637490000692196,0.6685701000096742,1,0.3824806000047829,0.5157540999935009,,,51.0,48.0,testmagda,60.0,
77,77,-45,3,10,58,0,,,,,,,,,,,session,1060.8357195999997,138.0,2.0,72.0,0.019466551296000008,5,0.340535399998771,0.47387470002286136,1,1.4868677000049502,1.6341849000018556,6,0.7416662000177894,0.8581789000018034,,,72.0,48.0,testmagda,60.0,
77,77,90,3,11,59,3,,,,,,,,,,,session,1069.7602202999988,174.0,2.0,72.0,0.019466551296000008,5,1.740934700006619,1.8743736000033095,6,0.8372956000093836,1.0208967000071425,7,0.5222148000029847,0.6722597999905702,,,48.0,66.0,testmagda,60.0,
77,77,90,3,11,59,3,,,materials/instructions\12_break.png,1079.594776599988,1082.9656890999759,0,3.251932500017574,3.3687611000204924,0.02204609999898821,3.376215000025695,,,,,,,,,,,,,,,,,,,,testmagda,60.0,
77,-77,-45,3,12,60,8,,,,,,,,,,,session,1082.9807774999936,138.0,2.0,72.0,0.019466551296000008,4,0.36221620001015253,0.5411717000242788,6,1.8367718000081368,2.0055231000005733,1,1.6313829999999143,1.7815382000117097,,,66.0,66.0,testmagda,60.0,
-77,-77,90,3,13,61,15,,,,,,,,,,,session,1093.7622404999856,168.0,2.0,72.0,0.019466551296000008,3,0.3700791000155732,0.5200117999920622,6,0.45760140000493266,0.5910021000017878,1,0.7338113999867346,0.8662095999752637,,,48.0,72.0,testmagda,60.0,
-77,77,90,3,14,62,7,,,,,,,,,,,session,1101.98335949998,138.0,2.0,72.0,0.019466551296000008,2,0.3835198000015225,0.5497732000076212,6,0.5441993999993429,0.6864185000013094,1,0.3281552999978885,0.4615891999856103,,,48.0,60.0,testmagda,60.0,
77,-77,90,3,15,63,11,,,,,,,,,,,session,1109.2423300999799,144.0,2.0,72.0,0.019466551296000008,4,0.5186468999891076,0.7014696999976877,6,0.3996865999943111,0.5002835000050254,1,0.3489545999909751,0.01120229999651201,,,54.0,63.0,testmagda,60.0,
-77,77,45,4,0,64,6,,,,,,,,,,,session,1116.8641423999798,150.0,2.0,72.0,0.019466551296000008,2,0.4215406000148505,0.5882915999973193,7,0.6043384000076912,0.7207846000092104,6,0.47135229999548756,0.6050255000009201,,,72.0,66.0,testmagda,60.0,
77,77,45,4,1,65,2,,,,,,,,,,,session,1125.0177332999883,138.0,2.0,72.0,0.019466551296000008,5,0.7736387999902945,0.9473692999745253,7,2.010714200005168,2.1145001999975648,1,0.5888615000003483,0.7367253999982495,,,57.0,57.0,testmagda,60.0,
-77,-77,90,4,2,66,15,,,,,,,,,,,session,1134.4614994000003,150.0,2.0,72.0,0.019466551296000008,3,0.4842763000051491,0.6665734999987762,1,2.918086299992865,3.101515999995172,1,1.3541125000047032,1.4872173000185285,,,48.0,57.0,testmagda,60.0,
-77,77,90,4,3,67,7,,,,,,,,,,,session,1145.43276169998,132.0,2.0,72.0,0.019466551296000008,2,0.4004321999964304,0.6171168999862857,6,1.4454842999984976,1.5775221000076272,1,1.429461599997012,1.5425992999807931,,,57.0,54.0,testmagda,60.0,
-77,-77,45,4,4,68,14,,,,,,,,,,,session,1154.6936219999916,156.0,2.0,72.0,0.019466551296000008,3,0.471473599987803,0.6378439000109211,7,0.7877880000160076,0.9554846000100952,6,0.9823207000154071,1.099069000018062,,,57.0,57.0,testmagda,60.0,
77,-77,0,4,5,69,9,,,,,,,,,,,session,1163.3456800999993,168.0,2.0,72.0,0.019466551296000008,4,0.3503498999925796,0.5023560999834444,0,0.32200000001466833,0.5051474000210874,6,1.0193203999951947,1.1026316999923438,,,72.0,57.0,testmagda,60.0,
77,77,-45,4,6,70,0,,,,,,,,,,,session,1171.8529180999903,138.0,2.0,72.0,0.019466551296000008,5,2.0132135000021663,2.1417392999865115,1,1.4374819000076968,1.5875306999951135,7,0.5284619000158273,0.6602915000112262,,,51.0,60.0,testmagda,60.0,
77,-77,-45,4,7,71,8,,,,,,,,,,,session,1182.360533799976,132.0,2.0,72.0,0.019466551296000008,4,0.6389067999843974,0.8047171999933198,1,1.1380713999969885,1.2714940000150818,1,0.3903429000056349,0.5402592000027653,,,51.0,48.0,testmagda,60.0,
-77,77,-45,4,8,72,4,,,,,,,,,,,session,1190.2691974999907,174.0,2.0,72.0,0.019466551296000008,2,0.4517237000109162,0.6018773000105284,1,1.5853473000170197,1.718698900018353,1,0.4149877000018023,0.5486007000145037,,,66.0,57.0,testmagda,60.0,
77,77,0,4,9,73,1,,,,,,,,,,,session,1199.5452052999754,180.0,2.0,72.0,0.019466551296000008,5,0.46959170000627637,0.6176880999992136,0,1.2569571000058204,1.4403506999951787,6,0.6552548999898136,0.7884859000041615,,,48.0,57.0,testmagda,60.0,
-77,-77,0,4,10,74,13,,,,,,,,,,,session,1208.5969968999852,180.0,2.0,72.0,0.019466551296000008,3,0.4846166999777779,0.6347998999990523,0,1.158981999993557,1.3758506999874953,1,1.1636650000000373,1.2805638000136241,,,57.0,51.0,testmagda,60.0,
77,-77,90,4,11,75,11,,,,,,,,,,,session,1218.1207116000005,174.0,2.0,72.0,0.019466551296000008,4,0.6675695999874733,0.8675643999886233,6,0.4048698999977205,0.5226570999948308,6,0.3642210999969393,0.4821650999947451,,,63.0,60.0,testmagda,60.0,
77,77,90,4,12,76,3,,,,,,,,,,,session,1226.9298774999916,180.0,2.0,72.0,0.019466551296000008,5,0.398924100009026,0.514596499997424,6,0.3599984000029508,0.49149479999323376,6,0.43465509999077767,0.6015516000043135,,,48.0,60.0,testmagda,60.0,
-77,77,0,4,13,77,5,,,,,,,,,,,session,1234.7669195999915,126.0,2.0,72.0,0.019466551296000008,2,0.9540305999980774,1.1041823999839835,0,0.35246490000281483,0.5303523999755271,7,0.303935999982059,0.4391816999996081,,,57.0,54.0,testmagda,60.0,
77,-77,45,4,14,78,10,,,,,,,,,,,session,1242.2499571999942,168.0,2.0,72.0,0.019466551296000008,4,0.35409869998693466,0.5874181999824941,1,2.681510000023991,2.830776400020113,1,1.958739499998046,2.10870710000745,,,48.0,57.0,testmagda,60.0,
-77,-77,-45,4,15,79,12,,,,,,,,,,,session,1253.8324470999942,174.0,2.0,72.0,0.019466551296000008,3,0.33144320000428706,0.5482991999888327,6,1.4530519999971148,1.6029944000183605,1,0.9248428999853786,1.045174800005043,,,51.0,51.0,testmagda,60.0,
-77,-77,-45,4,15,79,12,,,materials/instructions\12_break.png,1263.1299729999737,1265.860196099995,0,2.5576688000001013,2.728213099995628,0.010540799994487315,2.7357490999856964,,,,,,,,,,,,,,,,,,,,testmagda,60.0,
-77,-77,45,5,0,80,14,,,,,,,,,,,session,1265.8759418999834,162.0,2.0,72.0,0.019466551296000008,3,0.3710688000137452,0.5532569999922998,7,0.8889631000056397,1.0726700000232086,1,0.3170608000073116,0.4350696000037715,,,72.0,69.0,testmagda,60.0,
-77,-77,-45,5,1,81,12,,,,,,,,,,,session,1274.4302599999937,126.0,2.0,72.0,0.019466551296000008,3,0.3049413000117056,0.4882008999993559,7,1.3421280000184197,1.4761615000024904,1,0.28683229998569004,0.401289999979781,,,72.0,48.0,testmagda,60.0,
77,77,0,5,2,82,1,,,,,,,,,,,session,1282.3371981999953,162.0,2.0,72.0,0.019466551296000008,5,0.32614819999434985,0.44551510000019334,0,0.33699509999132715,0.519274399994174,6,0.4834981999883894,0.5835032000031788,,,72.0,57.0,testmagda,60.0,
-77,77,45,5,3,83,6,,,,,,,,,,,session,1290.7277658999956,168.0,2.0,72.0,0.019466551296000008,2,1.5516163999855053,1.7167860999761615,7,1.2758536000037566,1.4426633999974001,6,0.6222410000045784,0.7556896999885794,,,51.0,66.0,testmagda,60.0,
-77,77,90,5,4,84,7,,,,,,,,,,,session,1300.8337644999847,174.0,2.0,72.0,0.019466551296000008,2,1.9438691000104882,2.076878599997144,1,0.3649409999779891,0.5025900999899022,0,0.45080869999947026,0.6642673999886028,,,63.0,57.0,testmagda,60.0,
77,-77,-45,5,5,85,8,,,,,,,,,,,session,1310.4286272999889,156.0,2.0,72.0,0.019466551296000008,4,0.34113880002405494,0.4903774000122212,1,1.9911871000076644,2.142032100004144,1,0.35140669997781515,0.5003317999944557,,,60.0,48.0,testmagda,60.0,
77,77,45,5,6,86,2,,,,,,,,,,,session,1319.4155600999948,150.0,2.0,72.0,0.019466551296000008,5,0.4034609000082128,0.555442300013965,7,0.8511171000136528,1.0346270000154618,1,0.2736274999915622,0.4061816000030376,,,66.0,51.0,testmagda,60.0,
-77,77,0,5,7,87,5,,,,,,,,,,,session,1327.2904317999783,138.0,2.0,72.0,0.019466551296000008,2,0.35181520000332966,0.5224466999934521,0,0.2711383999849204,0.4534146999940276,6,0.32712040000478737,0.4104972000059206,,,60.0,60.0,testmagda,60.0,
77,-77,90,5,8,88,11,,,,,,,,,,,session,1335.1279960999964,138.0,2.0,72.0,0.019466551296000008,4,0.3654868000012357,0.5822754999971949,6,0.9390560000028927,1.0715810999972746,1,0.4368378999934066,0.5538547999749426,,,48.0,54.0,testmagda,60.0,
-77,-77,0,5,9,89,13,,,,,,,,,,,session,1342.7818524999893,126.0,2.0,72.0,0.019466551296000008,3,0.38598979997914284,0.5704800999956205,0,0.3186785999860149,0.4854981999960728,6,0.2692428999871481,0.3882121999922674,,,63.0,66.0,testmagda,60.0,
77,77,-45,5,10,90,0,,,,,,,,,,,session,1349.9244792999816,180.0,2.0,72.0,0.019466551296000008,5,0.38386909998371266,0.5015308999863919,1,1.1560429999954067,1.2893174999917392,6,0.6071439000079408,0.7230496999982279,,,57.0,63.0,testmagda,60.0,
77,77,90,5,11,91,3,,,,,,,,,,,session,1359.5449158999836,144.0,2.0,72.0,0.019466551296000008,5,1.0168771999888122,1.1179942000017036,6,0.894573900004616,1.0103632000100333,6,0.4390012999938335,0.5557556999847293,,,60.0,57.0,testmagda,60.0,
-77,77,-45,5,12,92,4,,,,,,,,,,,session,1368.0179629999911,156.0,2.0,72.0,0.019466551296000008,2,0.5047987000143621,0.6368170000205282,1,0.8832499000127427,1.0331669000152033,1,0.3018670000019483,0.4159429999999702,,,48.0,60.0,testmagda,60.0,
77,-77,45,5,13,93,10,,,,,,,,,,,session,1375.9617781999987,126.0,2.0,72.0,0.019466551296000008,4,0.38898629997856915,0.5379135999828577,7,1.2867744000104722,1.4692892000020947,1,0.34728360001463443,0.44724300000234507,,,69.0,51.0,testmagda,60.0,
77,-77,0,5,14,94,9,,,,,,,,,,,session,1383.9803050999762,168.0,2.0,72.0,0.019466551296000008,4,0.4515485999872908,0.6353979999839794,1,0.3900701999955345,0.5234635999950115,0,0.3023323999950662,0.4848578999808524,,,60.0,60.0,testmagda,60.0,
-77,-77,90,5,15,95,15,,,,,,,,,,,session,1391.86973939999,150.0,2.0,72.0,0.019466551296000008,3,0.3266144999943208,0.4804654000035953,6,1.3533864000055473,1.4850007000204641,1,0.30008559999987483,0.4322993000096176,,,57.0,51.0,testmagda,60.0,
-77,-77,0,6,0,96,13,,,,,,,,,,,session,1400.2947019999847,162.0,2.0,72.0,0.019466551296000008,3,0.4010837000096217,0.5511226000089664,0,0.3541339999937918,0.5398661999788601,1,0.5021928999922238,0.6689594000054058,,,63.0,57.0,testmagda,60.0,
77,-77,-45,6,1,97,8,,,,,,,,,,,session,1408.1987895999919,162.0,2.0,72.0,0.019466551296000008,4,0.33011310000438243,0.5132553000003099,1,0.8891356000094675,1.0725010000169277,1,0.2707449000154156,0.37072380000608973,,,48.0,54.0,testmagda,60.0,
77,77,0,6,2,98,1,,,,,,,,,,,session,1415.972069499985,138.0,2.0,72.0,0.019466551296000008,2,1.962915999989491,2.1291588000021875,1,0.7881320999877062,0.9387082000030205,0,0.5996966000238899,0.8168163000082131,,,57.0,63.0,testmagda,60.0,
-77,-77,-45,6,3,99,12,,,,,,,,,,,session,1426.1807692000002,174.0,2.0,72.0,0.019466551296000008,3,0.34743739999248646,0.5137460000114515,1,1.0217924000171479,1.171949500014307,1,0.2891591000079643,0.4243047999916598,,,69.0,72.0,testmagda,60.0,
-77,-77,-45,6,3,99,12,,,materials/instructions\12_break.png,1435.0147216999903,1439.0368414999975,0,3.8364223999960814,4.0200055000022985,0.022598000010475516,4.027107600006275,,,,,,,,,,,,,,,,,,,,testmagda,60.0,
-77,77,-45,6,4,100,4,,,,,,,,,,,session,1439.0517215,150.0,2.0,72.0,0.019466551296000008,2,0.4116564000141807,0.5456498000130523,1,0.4401249999937136,0.573433700017631,1,0.2997652000049129,0.4321955000050366,,,57.0,60.0,testmagda,60.0,
-77,77,45,6,5,101,6,,,,,,,,,,,session,1447.1002003999893,132.0,2.0,72.0,0.019466551296000008,2,1.2702707999851555,1.4226807999948505,1,1.155865399981849,1.270441500004381,1,0.31953179999254644,0.4537702999950852,,,66.0,51.0,testmagda,60.0,
-77,77,0,6,6,102,5,,,,,,,,,,,session,1455.853406099981,174.0,2.0,72.0,0.019466551296000008,2,0.7998209000215866,0.9672683000098914,0,0.4150956000084989,0.5971487000060733,6,0.6824777000001632,0.7991000000038184,,,54.0,60.0,testmagda,60.0,
77,-77,0,6,7,103,9,,,,,,,,,,,session,1464.4789648999867,162.0,2.0,72.0,0.019466551296000008,4,1.725620599987451,1.9424912999966182,6,0.7865535999881104,0.9190606999909505,0,0.9847291999903973,1.1190098999941256,,,54.0,60.0,testmagda,60.0,
77,-77,45,6,8,104,10,,,,,,,,,,,session,1474.5173606000026,162.0,2.0,72.0,0.019466551296000008,5,2.1200359000067692,2.2379928000154905,6,0.32014730002265424,0.48619290001806803,0,0.5319950999983121,0.7236285000108182,,,69.0,54.0,testmagda,60.0,
77,77,45,6,9,105,2,,,,,,,,,,,session,1484.1565667999967,144.0,2.0,72.0,0.019466551296000008,5,0.3764282999909483,0.5476584999996703,7,0.6262563999916892,0.7935714999912307,1,0.30127950001042336,0.4513625999970827,,,72.0,66.0,testmagda,60.0,
77,-77,90,6,10,106,11,,,,,,,,,,,session,1492.4971552999923,168.0,2.0,72.0,0.019466551296000008,4,0.33359569997992367,0.5162683999806177,6,1.1908602000039537,1.3075152999954298,1,0.3226135000004433,0.45716029999312013,,,48.0,72.0,testmagda,60.0,
-77,77,90,6,11,107,7,,,,,,,,,,,session,1501.022109099984,174.0,2.0,72.0,0.019466551296000008,2,0.3733418000047095,0.5412133999925572,6,0.8583258999860846,0.9873520999972243,1,2.122034200001508,2.254312100005336,,,60.0,69.0,testmagda,60.0,
-77,-77,45,6,12,108,14,,,,,,,,,,,session,1511.2811821999785,144.0,2.0,72.0,0.019466551296000008,3,0.5259374000015669,0.6930527999938931,7,0.5041456999897491,0.6542082999949344,1,0.6192163999949116,0.7356909999798518,,,51.0,69.0,testmagda,60.0,
77,77,90,6,13,109,3,,,,,,,,,,,session,1519.2163935999852,174.0,2.0,72.0,0.019466551296000008,5,0.4840634999854956,0.6173026000033133,6,0.8465291000029538,0.9474620000110008,6,0.29945729998871684,0.4004813999927137,,,48.0,66.0,testmagda,60.0,
77,77,-45,6,14,110,0,,,,,,,,,,,session,1527.4250292999786,132.0,2.0,72.0,0.019466551296000008,5,1.4188769000174943,1.568935400020564,1,0.7148750000051223,0.8819867999991402,6,0.9674303999927361,1.0508013000071514,,,60.0,54.0,testmagda,60.0,
-77,-77,90,6,15,111,15,,,,,,,,,,,session,1537.0797161999799,180.0,2.0,72.0,0.019466551296000008,5,2.3206233000091743,2.4706864999898244,6,0.38665209998725913,0.5207487999869045,0,0.3388433000072837,0.5549537000188138,,,60.0,51.0,testmagda,60.0,
-77,-77,0,7,0,112,13,,,,,,,,,,,session,1546.9206171999977,150.0,2.0,72.0,0.019466551296000008,3,0.540449299995089,0.740974999993341,0,0.3068799000175204,0.45935889999964274,7,0.4510331000201404,0.5686134000134189,,,63.0,66.0,testmagda,60.0,
77,77,0,7,1,113,1,,,,,,,,,,,session,1555.1976110999822,150.0,2.0,72.0,0.019466551296000008,5,2.4352429999853484,2.5685509000031743,6,0.5327019999967888,0.6852823999943212,0,0.3507681000046432,0.567626800009748,,,69.0,72.0,testmagda,60.0,
-77,77,90,7,2,114,7,,,,,,,,,,,session,1565.336348199984,138.0,2.0,72.0,0.019466551296000008,2,1.8214975000009872,1.954927000013413,0,1.5017865000118036,1.697430100000929,0,0.31727180001325905,0.4662160000007134,,,72.0,60.0,testmagda,60.0,
77,77,-45,7,3,115,0,,,,,,,,,,,session,1575.3980673999758,144.0,2.0,72.0,0.019466551296000008,5,0.43072259999462403,0.5624000999960117,1,0.8884844000276644,1.0220771000022069,1,0.284209200006444,0.40099670001654886,,,69.0,66.0,testmagda,60.0,
-77,-77,-45,7,4,116,12,,,,,,,,,,,session,1583.514795999974,180.0,2.0,72.0,0.019466551296000008,3,0.3862531000049785,0.5872860999952536,1,0.7554365000105463,0.9073245000035968,1,0.36814350000349805,0.5016030000115279,,,48.0,48.0,testmagda,60.0,
77,-77,45,7,5,117,10,,,,,,,,,,,session,1591.5555430999957,144.0,2.0,72.0,0.019466551296000008,4,0.3396732000110205,0.5105403999914415,7,0.9508474000031129,1.1188552000094205,1,0.31522710001445375,0.41492909999215044,,,69.0,60.0,testmagda,60.0,
77,77,45,7,6,118,2,,,,,,,,,,,session,1600.1474301999842,150.0,2.0,72.0,0.019466551296000008,5,0.3976929999771528,0.5143349999852944,7,0.8734551999950781,0.9920961000025272,1,0.6202053000160959,0.7563681000028737,,,51.0,54.0,testmagda,60.0,
-77,-77,90,7,7,119,15,,,,,,,,,,,session,1608.103716099984,132.0,2.0,72.0,0.019466551296000008,3,0.35279989999253303,0.5523301000066567,6,0.32086949999211356,0.4709441000013612,1,0.35292109998408705,0.46918419998837635,,,63.0,72.0,testmagda,60.0,
-77,-77,90,7,7,119,15,,,materials/instructions\12_break.png,1615.5227416999987,1619.91219979999,0,4.220799700007774,4.3874555999937,0.01876879998599179,4.394994900008896,,,,,,,,,,,,,,,,,,,,testmagda,60.0,
-77,77,0,7,8,120,5,,,,,,,,,,,session,1619.928006799979,144.0,2.0,72.0,0.019466551296000008,2,0.342507299996214,0.4746809999924153,0,0.33548209999571554,0.48655100000905804,6,0.31559899999410845,0.45009110000682995,,,54.0,51.0,testmagda,60.0,
77,77,90,7,9,121,3,,,,,,,,,,,session,1626.94953849999,180.0,2.0,72.0,0.019466551296000008,5,0.5179512999893632,0.6524812999996357,6,0.37352750002173707,0.4908687000279315,1,0.2514744999934919,0.3680582999950275,,,48.0,66.0,testmagda,60.0,
-77,77,45,7,10,122,6,,,,,,,,,,,session,1634.8051684999955,126.0,2.0,72.0,0.019466551296000008,2,0.5243632000056095,0.7005779000173789,7,0.7520735000143759,0.902030500001274,1,0.2841070000140462,0.4173672000179067,,,66.0,63.0,testmagda,60.0,
77,-77,0,7,11,123,9,,,,,,,,,,,session,1642.630277999997,132.0,2.0,72.0,0.019466551296000008,4,0.3335339000041131,0.5150229000137188,0,0.35258950002025813,0.485629600007087,1,0.8519359000201803,1.0021331000025384,,,66.0,48.0,testmagda,60.0,
-77,-77,45,7,12,124,14,,,,,,,,,,,session,1650.1836799999874,132.0,2.0,72.0,0.019466551296000008,3,0.3364520999894012,0.5031125999812502,7,0.3390791999991052,0.5071570000145584,1,0.3567518000199925,0.5067861000134144,,,57.0,48.0,testmagda,60.0,
77,-77,-45,7,13,125,8,,,,,,,,,,,session,1657.1046594999789,126.0,2.0,72.0,0.019466551296000008,4,0.3133522999996785,0.5799714000022504,1,1.0195747000107076,1.153361800010316,1,0.2654006000084337,0.36557100000209175,,,60.0,69.0,testmagda,60.0,
77,-77,90,7,14,126,11,,,,,,,,,,,session,1665.1633875999833,150.0,2.0,72.0,0.019466551296000008,4,0.3682224999938626,0.5349436000105925,6,1.0697922999970615,1.1882197000086308,1,0.96925639998517,1.0860943999723531,,,72.0,63.0,testmagda,60.0,
-77,77,-45,7,15,127,4,,,,,,,,,,,session,1674.167729799985,174.0,2.0,72.0,0.019466551296000008,2,0.3333347000007052,0.5004386999935377,1,0.9107572000066284,1.0440788999840152,1,0.2817524999845773,0.41516929998761043,,,66.0,69.0,testmagda,60.0,
-77,-77,45,8,0,128,14,,,,,,,,,,,session,1682.7338167999987,162.0,2.0,72.0,0.019466551296000008,3,0.011033999995561317,0.012950399977853522,6,1.0372752000112087,1.1546097999962512,1,1.0391443000116851,1.1532437000132632,,,57.0,66.0,testmagda,60.0,
77,-77,-45,8,1,129,8,,,,,,,,,,,session,1691.6801564999914,144.0,2.0,72.0,0.019466551296000008,4,0.23446169999078847,0.4199705999926664,7,0.3889119000232313,0.5563658000028227,1,0.2850933999870904,0.40180019999388605,,,69.0,66.0,testmagda,60.0,
-77,-77,90,8,2,130,15,,,,,,,,,,,session,1699.1531358999782,168.0,2.0,72.0,0.019466551296000008,3,0.33725400001276284,0.5049468000070192,6,0.4740461999899708,0.6074471999891102,6,0.2819041000038851,0.3861126999836415,,,54.0,51.0,testmagda,60.0,
77,77,90,8,3,131,3,,,,,,,,,,,session,1706.6846310999827,138.0,2.0,72.0,0.019466551296000008,5,1.6179255000024568,1.802572999993572,6,0.5908592999912798,0.7242078999988735,1,2.653206199989654,2.7846087999932934,,,60.0,54.0,testmagda,60.0,
77,77,45,8,4,132,2,,,,,,,,,,,session,1717.6500732999993,180.0,2.0,72.0,0.019466551296000008,5,0.552751499984879,0.7526528000016697,7,0.6737769000174012,0.8422252000018489,0,0.3139662000176031,0.5233202000090387,,,69.0,72.0,testmagda,60.0,
-77,77,0,8,5,133,5,,,,,,,,,,,session,1726.5580337999854,132.0,2.0,72.0,0.019466551296000008,2,0.8127967999898829,0.9798377999977674,0,0.31443609998677857,0.5312086000049021,6,0.34463019997929223,0.46065639998414554,,,54.0,66.0,testmagda,60.0,
77,-77,0,8,6,134,9,,,,,,,,,,,session,1734.6829939000017,162.0,2.0,72.0,0.019466551296000008,4,0.4507891000248492,0.6353747000102885,0,1.655468999990262,1.8389082000066992,1,0.7577914000139572,0.8743855000066105,,,63.0,63.0,testmagda,60.0,
77,-77,45,8,7,135,10,,,,,,,,,,,session,1744.2738720999914,126.0,2.0,72.0,0.019466551296000008,4,0.3684417000040412,0.5018292999884579,7,0.4844683999835979,0.662601399992127,1,0.361126100004185,0.5149277999880724,,,63.0,66.0,testmagda,60.0,
-77,77,45,8,8,136,6,,,,,,,,,,,session,1751.6851113000012,144.0,2.0,72.0,0.019466551296000008,2,0.38666859999648295,0.5368620000081137,7,0.6054603999946266,0.7895666999975219,1,0.3503025000100024,0.5159560000174679,,,51.0,48.0,testmagda,60.0,
77,77,-45,8,9,137,0,,,,,,,,,,,session,1759.032196199987,126.0,2.0,72.0,0.019466551296000008,5,0.36819109998759814,0.5027586999931373,1,1.9902684999979101,2.1421547000063583,1,0.7174480000103358,0.8841942999861203,,,69.0,63.0,testmagda,60.0,
77,77,0,8,10,138,1,,,,,,,,,,,session,1768.3067434999975,162.0,2.0,72.0,0.019466551296000008,5,0.9442970000091009,1.1248114999907557,0,0.3332644999900367,0.5150049999938346,7,0.3035375000035856,0.4035017999995034,,,63.0,66.0,testmagda,60.0,
77,-77,90,8,11,139,11,,,,,,,,,,,session,1777.2316232000012,138.0,2.0,72.0,0.019466551296000008,4,0.3973671999992803,0.5808243000064977,6,0.40640320000238717,0.5565087999857496,1,0.43706259998725727,0.5703790999832563,,,54.0,51.0,testmagda,60.0,
77,-77,90,8,11,139,11,,,materials/instructions\12_break.png,1784.4580541999894,1786.167582199996,0,1.5081680000002962,1.707409100024961,0.011674500012304634,1.7152329999953508,,,,,,,,,,,,,,,,,,,,testmagda,60.0,
-77,-77,0,8,12,140,13,,,,,,,,,,,session,1786.1828936999955,180.0,2.0,72.0,0.019466551296000008,3,0.011004600004525855,0.05005449999589473,0,0.987609900010284,1.2071259000222199,1,0.32424210000317544,0.4289728000003379,,,66.0,51.0,testmagda,60.0,
-77,77,-45,8,13,141,4,,,,,,,,,,,session,1794.2841080999933,138.0,2.0,72.0,0.019466551296000008,2,2.551963700010674,2.7521471999934874,1,0.9429743999789935,1.0754391999798827,1,0.3016998000093736,0.43513960001291707,,,63.0,60.0,testmagda,60.0,
-77,77,90,8,14,142,7,,,,,,,,,,,session,1804.5326743999904,168.0,2.0,72.0,0.019466551296000008,2,0.7071622000075877,0.9091352999967057,6,0.3182890999887604,0.45084599999245256,6,0.9709925000206567,1.1011946000216994,,,63.0,60.0,testmagda,60.0,
-77,-77,-45,8,15,143,12,,,,,,,,,,,session,1813.2726989999937,138.0,2.0,72.0,0.019466551296000008,3,0.3002472000080161,0.49937380000483245,1,1.303929000016069,1.4548376000020653,6,0.3175831999978982,0.45023899999796413,,,54.0,60.0,testmagda,60.0,
-77,-77,45,9,0,144,14,,,,,,,,,,,session,1821.9016986999777,180.0,2.0,72.0,0.019466551296000008,3,0.31767109999782406,0.534441900003003,7,0.3423772999958601,0.49295809998875484,6,0.2816119000199251,0.41572330001508817,,,48.0,60.0,testmagda,60.0,
77,-77,45,9,1,145,10,,,,,,,,,,,session,1829.6028219999862,174.0,2.0,72.0,0.019466551296000008,4,0.330843100004131,0.5314756000007037,7,0.45879649999551475,0.5755402999930084,1,0.2727096000162419,0.42329220002284274,,,63.0,57.0,testmagda,60.0,
-77,-77,-45,9,2,146,12,,,,,,,,,,,session,1837.4780979999923,150.0,2.0,72.0,0.019466551296000008,3,0.25757400001748465,0.4751622000185307,1,0.38099650002550334,0.5309580000175629,6,0.2845206999918446,0.416531800001394,,,48.0,63.0,testmagda,60.0,
-77,77,90,9,3,147,7,,,,,,,,,,,session,1845.1978799999924,162.0,2.0,72.0,0.019466551296000008,2,0.9537452000076883,1.0861518000019714,6,0.3415908000024501,0.47492209999472834,6,0.2535131999757141,0.3869562999752816,,,54.0,51.0,testmagda,60.0,
77,-77,-45,9,4,148,8,,,,,,,,,,,session,1853.0376534999814,126.0,2.0,72.0,0.019466551296000008,4,0.4544686000153888,0.618126499990467,1,0.7795182000263594,0.9051539000065532,1,0.2496394999907352,0.3830331999924965,,,69.0,72.0,testmagda,60.0,
77,-77,0,9,5,149,9,,,,,,,,,,,session,1860.8470787999977,168.0,2.0,72.0,0.019466551296000008,4,0.2867162000038661,0.4866997000062838,0,0.35419059998821467,0.5369653000088874,1,0.2713845999969635,0.3887897999957204,,,63.0,69.0,testmagda,60.0,
77,77,45,9,6,150,2,,,,,,,,,,,session,1868.8506599999964,126.0,2.0,72.0,0.019466551296000008,5,0.622381499997573,0.7716910000017378,0,0.8283622000017203,1.0306697000050917,1,0.33731839997926727,0.503995799983386,,,60.0,72.0,testmagda,60.0,
77,77,-45,9,7,151,0,,,,,,,,,,,session,1876.8899972999934,174.0,2.0,72.0,0.019466551296000008,5,1.0831479000044055,1.1880247000081,1,0.9123758999921847,1.0450163999921642,1,0.6315219000098296,0.7649374000029638,,,54.0,72.0,testmagda,60.0,
77,77,90,9,8,152,3,,,,,,,,,,,session,1886.3824213999906,126.0,2.0,72.0,0.019466551296000008,5,0.43635689999791794,0.6044427999877371,6,0.3252570000186097,0.44221200002357364,6,0.3387874999898486,0.4691402999742422,,,63.0,63.0,testmagda,60.0,
-77,77,45,9,9,153,6,,,,,,,,,,,session,1893.5353842999903,132.0,2.0,72.0,0.019466551296000008,2,0.8861821000173222,1.0696794000105,7,0.9097391999966931,1.0599609999917448,1,0.30246940001961775,0.43594140000641346,,,51.0,54.0,testmagda,60.0,
-77,-77,90,9,10,154,15,,,,,,,,,,,session,1901.4910680999747,132.0,2.0,72.0,0.019466551296000008,3,0.2886274999764282,0.505178799998248,6,1.2521823999995831,1.3855380000022706,1,2.902458700002171,3.0191289999929722,,,66.0,60.0,testmagda,60.0,
-77,-77,0,9,11,155,13,,,,,,,,,,,session,1912.6497412000026,150.0,2.0,72.0,0.019466551296000008,3,0.43289500000537373,0.664778500009561,0,0.34410859999479726,0.5267695999937132,6,0.37080919998697937,0.5046151999849826,,,57.0,66.0,testmagda,60.0,
-77,77,-45,9,12,156,4,,,,,,,,,,,session,1920.3401927999803,132.0,2.0,72.0,0.019466551296000008,2,0.28743920000852086,0.4382305000035558,1,0.5955507999751717,0.7289523999788798,1,0.26687740001943894,0.4166156999999657,,,72.0,57.0,testmagda,60.0,
77,-77,90,9,13,157,11,,,,,,,,,,,session,1927.7192382999929,132.0,2.0,72.0,0.019466551296000008,4,0.3361105999792926,0.5189188999938779,6,0.8186785000143573,0.950319399998989,6,0.2849997000012081,0.40216850000433624,,,57.0,72.0,testmagda,60.0,
77,77,0,9,14,158,1,,,,,,,,,,,session,1935.4036732999957,162.0,2.0,72.0,0.019466551296000008,5,0.38720749999629334,0.5373536999977659,0,0.32249859999865294,0.5402891999983694,1,0.23581199999898672,0.368951400014339,,,63.0,60.0,testmagda,60.0,
-77,77,0,9,15,159,5,,,,,,,,,,,session,1943.0570265999995,144.0,2.0,72.0,0.019466551296000008,2,0.35474700000486337,0.5384648999897763,0,0.5299988999904599,0.6858928999863565,6,0.29887840000446886,0.41166909999446943,,,63.0,54.0,testmagda,60.0,
-77,77,0,9,15,159,5,,,materials/instructions\12_break.png,1950.5159723999968,1953.1961294999928,0,2.5280831000127364,2.678049900016049,0.018748900009086356,2.6859547000203747,,,,,,,,,,,,,,,,,,,,testmagda,60.0,
77,77,0,10,0,160,1,,,,,,,,,,,session,1953.2114137999888,132.0,2.0,72.0,0.019466551296000008,5,2.2503657000197563,2.3670791000186,7,0.4396603000059258,0.5730943999951705,0,0.5529095000238158,0.7029255999950692,,,57.0,48.0,testmagda,60.0,
77,77,90,10,1,161,3,,,,,,,,,,,session,1962.2540052999975,180.0,2.0,72.0,0.019466551296000008,5,0.46772129999590106,0.5856395000009798,6,0.4047844000160694,0.5047388000239152,1,0.43181199999526143,0.5594993999984581,,,48.0,51.0,testmagda,60.0,
-77,-77,0,10,2,162,13,,,,,,,,,,,session,1969.9957634999882,144.0,2.0,72.0,0.019466551296000008,3,0.3447401000012178,0.49460540001746267,0,0.7829212000069674,0.9498712999920826,1,0.011120300012407824,0.0526151999947615,,,60.0,69.0,testmagda,60.0,
-77,77,-45,10,3,163,4,,,,,,,,,,,session,1977.9645933999855,174.0,2.0,72.0,0.019466551296000008,2,0.21782920000259764,0.3681127000018023,1,0.44162659998983145,0.5750130999949761,1,0.11279659997671843,0.2308424999937415,,,51.0,48.0,testmagda,60.0,
-77,-77,90,10,4,164,15,,,,,,,,,,,session,1985.1381631999975,174.0,2.0,72.0,0.019466551296000008,3,0.01231950000510551,0.06906910001998767,6,0.27216960000805557,0.3715869000006933,6,1.224033899983624,1.3955605999799445,,,60.0,51.0,testmagda,60.0,
77,-77,90,10,5,165,11,,,,,,,,,,,session,1993.185439199995,162.0,2.0,72.0,0.019466551296000008,4,0.1363788000016939,0.3865751000121236,6,0.01163960000849329,0.013516500010155141,6,0.06379929999820888,0.16698320000432432,,,66.0,72.0,testmagda,60.0,
77,-77,45,10,6,166,10,,,,,,,,,,,session,2000.3694100999855,162.0,2.0,72.0,0.019466551296000008,4,1.290784300013911,1.4721961000177544,6,0.6700084999902174,0.8196976000035647,0,0.2823603999859188,0.3839787000033539,,,63.0,66.0,testmagda,60.0,
-77,77,90,10,7,167,7,,,,,,,,,,,session,2009.3391381999827,180.0,2.0,72.0,0.019466551296000008,2,0.19896419998258352,0.36568699998315424,6,0.26927799999248236,0.3815401000028942,1,0.011050700006308034,0.04775050000171177,,,51.0,63.0,testmagda,60.0,
77,77,-45,10,8,168,0,,,,,,,,,,,session,2016.7139282999851,150.0,2.0,72.0,0.019466551296000008,5,0.08740799999213777,0.23615019998396747,1,1.9017346000182442,2.0187406000040937,1,0.18724490000749938,0.2872784000064712,,,72.0,48.0,testmagda,60.0,
-77,77,0,10,9,169,5,,,,,,,,,,,session,2025.2011141999974,162.0,2.0,72.0,0.019466551296000008,2,0.12294199998723343,0.32314530000439845,0,0.011907900014193729,0.013831899996148422,6,1.647299700009171,1.7473058000032324,,,60.0,57.0,testmagda,60.0,
-77,-77,45,10,10,170,14,,,,,,,,,,,session,2033.390362199978,174.0,2.0,72.0,0.019466551296000008,3,0.05752450000727549,0.25669350000680424,7,0.45340030000079423,0.57287990002078,6,0.6655472000129521,0.7818045000021812,,,69.0,57.0,testmagda,60.0,
-77,77,45,10,11,171,6,,,,,,,,,,,session,2042.1147957999783,132.0,2.0,72.0,0.019466551296000008,2,0.11789240001235157,0.2683293000154663,7,0.31964390000212006,0.46961329999612644,1,0.5227884999767412,0.6580361999804154,,,63.0,54.0,testmagda,60.0,
77,-77,-45,10,12,172,8,,,,,,,,,,,session,2049.1038169999956,126.0,2.0,72.0,0.019466551296000008,4,0.35353729999042116,0.5201803999952972,1,1.6077360999770463,1.7587136999936774,1,0.252870600001188,0.3774138999870047,,,69.0,69.0,testmagda,60.0,
-77,-77,-45,10,13,173,12,,,,,,,,,,,session,2057.6012120999803,156.0,2.0,72.0,0.019466551296000008,3,0.010994599986588582,0.01287949999095872,1,2.042796499998076,2.226056099985726,1,0.3361604000092484,0.4694590999861248,,,69.0,72.0,testmagda,60.0,
77,-77,0,10,14,174,9,,,,,,,,,,,session,2067.3173794999893,174.0,2.0,72.0,0.019466551296000008,4,0.011987300007604063,0.136526500020409,0,0.011501000000862405,0.10676840000087395,6,0.6195906999928411,0.7196438999962993,,,72.0,51.0,testmagda,60.0,
77,77,45,10,15,175,2,,,,,,,,,,,session,2074.6720184999867,180.0,2.0,72.0,0.019466551296000008,5,0.011185799987288192,0.013087600003927946,7,0.2998430000152439,0.4110102000122424,1,0.7516936000029091,0.8663604000175837,,,48.0,69.0,testmagda,60.0,
77,77,0,11,0,176,1,,,,,,,,,,,session,2082.398840399983,132.0,2.0,72.0,0.019466551296000008,5,0.18449759998475201,0.3345713999879081,0,0.03569479999714531,0.20407870001508854,1,0.7480814000009559,0.8642152999818791,,,51.0,51.0,testmagda,60.0,
-77,-77,45,11,1,177,14,,,,,,,,,,,session,2089.1664764999878,132.0,2.0,72.0,0.019466551296000008,3,0.15550699998857453,0.3216470000043046,7,0.8568218000000343,0.9883488999912515,1,0.011115500004962087,0.013086599996313453,,,60.0,63.0,testmagda,60.0,
77,77,-45,11,2,178,0,,,,,,,,,,,session,2096.179109699995,168.0,2.0,72.0,0.019466551296000008,5,0.3486387000011746,0.4986866999824997,1,0.3506397999881301,0.47751620001508854,1,0.011845300003187731,0.013683500001206994,,,51.0,66.0,testmagda,60.0,
-77,-77,0,11,3,179,13,,,,,,,,,,,session,2103.3859048000013,174.0,2.0,72.0,0.019466551296000008,3,0.011143600015202537,0.013047899992670864,0,0.011501800006954,0.10790750000160187,1,0.06492279999656603,0.1975681999756489,,,69.0,63.0,testmagda,60.0,
-77,-77,0,11,3,179,13,,,materials/instructions\12_break.png,2110.5115371999855,2112.8480573999987,0,2.1687994000094477,2.3343382000166457,0.023279799992451444,2.34183099999791,,,,,,,,,,,,,,,,,,,,testmagda,60.0,
77,-77,45,11,4,180,10,,,,,,,,,,,session,2112.863133899984,132.0,2.0,72.0,0.019466551296000008,4,0.010850500024389476,0.012727200024528429,7,0.7589573000150267,0.8924126999918371,1,0.010904400027357042,0.012811100023100153,,,48.0,60.0,testmagda,60.0,
77,-77,0,11,5,181,9,,,,,,,,,,,session,2119.249924099975,162.0,2.0,72.0,0.019466551296000008,4,0.2865925999940373,0.4700872999965213,0,0.011253600008785725,0.013153400010196492,1,0.011015399999450892,0.012940899992827326,,,66.0,66.0,testmagda,60.0,
-77,-77,90,11,6,182,15,,,,,,,,,,,session,2126.1317801999976,162.0,2.0,72.0,0.019466551296000008,3,0.011058100004447624,0.15069909999147058,6,0.01173269998980686,0.013596300006611273,6,0.012222799996379763,0.01413009999669157,,,60.0,63.0,testmagda,60.0,
-77,77,0,11,7,183,5,,,,,,,,,,,session,2132.5807230999926,150.0,2.0,72.0,0.019466551296000008,4,1.4404985000146553,1.620652700017672,6,0.011500799999339506,0.08327170001575723,0,0.023805999982869253,0.1762056999723427,,,54.0,60.0,testmagda,60.0,
77,-77,-45,11,8,184,8,,,,,,,,,,,session,2140.3060338999785,168.0,2.0,72.0,0.019466551296000008,4,0.01122760001453571,0.11442970001371577,1,0.9697577999904752,1.0809184999961872,1,0.011847799993120134,0.013597899989690632,,,66.0,69.0,testmagda,60.0,
-77,77,-45,11,9,185,4,,,,,,,,,,,session,2148.0111795999983,150.0,2.0,72.0,0.019466551296000008,2,0.185091299994383,0.36742840000079013,1,0.19117889998597093,0.29141859998344444,1,0.432110299996566,0.5323421999928541,,,54.0,63.0,testmagda,60.0,
77,-77,90,11,10,186,11,,,,,,,,,,,session,2155.199049799994,168.0,2.0,72.0,0.019466551296000008,4,0.01103359999251552,0.01291369998943992,6,0.6519944999890868,0.7657669000036549,1,0.3192626999807544,0.43524779999279417,,,63.0,60.0,testmagda,60.0,
77,77,90,11,11,187,3,,,,,,,,,,,session,2162.7223462999973,132.0,2.0,72.0,0.019466551296000008,5,0.35626179998507723,0.47297899998375215,6,0.011318399978335947,0.01336549999541603,1,0.011077399976784363,0.0129536000022199,,,72.0,72.0,testmagda,60.0,
-77,-77,-45,11,12,188,12,,,,,,,,,,,session,2169.298593799991,132.0,2.0,72.0,0.019466551296000008,5,7.845752699999139,7.9457777999923564,6,0.35672929999418557,0.47383949998766184,0,0.08654839999508113,0.301271700009238,,,51.0,69.0,testmagda,60.0,
-77,77,90,11,13,189,7,,,,,,,,,,,session,2184.021275099978,126.0,2.0,72.0,0.019466551296000008,2,0.32445990000269376,0.44132969999918714,6,0.30528850000700913,0.4377824999974109,1,0.11941630000364967,0.2438294000166934,,,48.0,54.0,testmagda,60.0,
77,77,45,11,14,190,2,,,,,,,,,,,session,2190.3849290999933,156.0,2.0,72.0,0.019466551296000008,5,0.17433549999259412,0.29111530000227503,7,0.6871553999953903,0.8202810999937356,1,0.01106309998431243,0.012921299989102408,,,72.0,72.0,testmagda,60.0,
-77,77,45,11,15,191,6,,,,,,,,,,,session,2198.5452872999886,138.0,2.0,72.0,0.019466551296000008,2,0.011458399996627122,0.013401800009887666,7,0.012599000008776784,0.15570750000188127,1,0.27082820000941865,0.38764860000810586,,,69.0,51.0,testmagda,60.0,
,,,,,,,,,materials/instructions\13_end.png,2204.881426499982,2811.965300299984,0,607.0150977999729,607.0818682999816,0.024584699975093827,607.0933251999959,,,,,,,,,,,,,,,,,,,,testmagda,60.0,
